speed_mean,speed_std,speed_max,speed_range,accel_x_mean,accel_x_std,accel_x_min,accel_y_mean,accel_y_std,accel_y_max,accel_magnitude_mean,accel_magnitude_std,braking_event_rate,lane_deviation_mean,road_type,label,driver
63.213999999999984,1.5728966908223827,65.2,4.300000000000004,0.0047599999999999995,0.02583916407316614,-0.067,-0.01,0.019573451407454947,0.052,0.041530133661489395,0.01968979426146513,0.0,0.11452,0,0,D1
62.00400000000001,1.111568261511635,64.3,3.3999999999999986,0.00762,0.025796038455545844,-0.067,-0.00984,0.02376245778533862,0.057,0.04827243604804629,0.01737964090501531,0.0,0.28188,0,0,D1
64.834,3.1419490766083404,71.4,10.200000000000003,-0.0026599999999999996,0.01744661571766857,-0.04,-6.000000000000035e-05,0.025760753094581687,0.057,0.03597763362577324,0.014790871464847168,0.0,0.48700000000000004,0,0,D1
70.176,3.0644777695392094,73.5,9.200000000000003,-0.012760000000000002,0.01528340276247407,-0.052,0.011200000000000002,0.01548676854608475,0.051,0.033863380910596985,0.01307713398661249,0.0,0.57626,0,0,D1
73.844,1.5437823680817182,78.0,6.599999999999994,-0.01302,0.022467300683437694,-0.075,-0.0035600000000000002,0.02259394609181849,0.054,0.03930886233459965,0.013713983446085,0.0,0.3718000000000001,0,0,D1
76.65799999999999,2.0541752602930456,79.2,5.700000000000003,-0.01602,0.03138056086178193,-0.105,-0.010540000000000002,0.044888844939472435,0.117,0.05305125840450623,0.02685747534110955,0.0,0.20666,0,0,D1
79.068,0.7887813385216457,80.5,2.5,-0.01586,0.02982751079121421,-0.105,0.0331,0.064117470318159,0.149,0.0748042309240607,0.03125423228716071,0.0,0.28084,0,0,D1
81.092,1.8181133078001508,84.4,5.200000000000003,-0.0085,0.022756317804073663,-0.058,0.01872,0.06055015772068641,0.149,0.06518474627437457,0.030395211023209103,0.0,0.29274,0,0,D1
86.43800000000002,4.85035627557399,94.6,14.099999999999994,-0.00844,0.021038212851856024,-0.058,-0.01188,0.026600481198655032,0.062,0.03913352961102354,0.01727503575056051,0.0,0.39382,0,0,D1
94.31599999999999,4.909597132148423,99.2,14.799999999999997,-0.00892,0.01549043575888038,-0.057,0.00382,0.02133793804471275,0.054,0.03593749222975375,0.02114891610074588,0.0,0.40693999999999986,0,0,D1
99.01400000000001,1.643655681704657,101.1,6.5,-0.0034000000000000015,0.026341602077322477,-0.062,-0.0007999999999999997,0.02675369133409444,0.053,0.04417360168964482,0.021122332109987485,0.0,0.4112199999999999,0,0,D1
102.11400000000002,2.6191609343451967,106.3,7.599999999999994,-0.00772,0.029407509245089086,-0.062,0.0053,0.026366835229128274,0.053,0.03784799137925024,0.01738705117483121,0.0,0.40936,0,0,D1
105.92399999999999,1.8717435721807623,108.7,7.6000000000000085,-0.011040000000000001,0.027216142268881534,-0.069,0.00406,0.027986003644679243,0.078,0.03612936790789514,0.020218030927267795,0.0,0.16942000000000002,0,0,D1
108.51199999999999,1.355527941430942,110.5,4.200000000000003,-0.008940000000000002,0.027208388412399583,-0.069,-0.006660000000000002,0.026024304025276068,0.078,0.03442999764703359,0.02080901876651711,0.0,0.07862000000000001,0,0,D1
111.04,1.9935897271003367,114.8,6.099999999999994,-0.007799999999999999,0.018460769214742923,-0.046,-0.00638,0.01397839761918368,0.039,0.024291790036789607,0.011315871014134497,0.0,0.10679999999999998,0,0,D1
111.92999999999998,1.5402921800749336,114.8,4.299999999999997,-0.005679999999999998,0.0423265590380319,-0.119,-0.0004599999999999999,0.0217708153269463,0.059,0.04046916349078919,0.027140869668376064,0.0,0.35597999999999996,0,0,D1
111.05799999999999,0.672038689362448,112.3,3.200000000000003,-0.014499999999999999,0.04618235593817189,-0.119,-0.010960000000000001,0.02758764941056052,0.063,0.055160183398365696,0.02506978594760358,0.0,0.31936000000000003,0,0,D1
109.256,1.6310928851539988,111.1,4.199999999999989,-0.0144,0.0274,-0.082,-0.008059999999999998,0.02392438922940354,0.063,0.04250835394382443,0.01991180165094426,0.0,0.08429999999999999,0,0,D1
107.60799999999999,0.7342588099573576,109.1,2.1999999999999886,-0.01572,0.023872193028710204,-0.067,0.0010400000000000001,0.014467840198177475,0.037,0.03176177710166638,0.015612479474576148,0.0,0.15832,0,0,D1
106.852,1.1869692498123108,107.5,3.0,-0.02038,0.019164435812201727,-0.067,-0.024239999999999998,0.02292732867126042,0.085,0.0391306110123719,0.02152615343712014,0.0,0.19052,0,0,D1
106.92800000000003,1.2162302413605726,107.6,3.0999999999999943,-0.012460000000000002,0.03421298583871334,-0.121,-0.02522,0.023152788169030526,0.085,0.045569794895131216,0.022980291408415027,0.0,0.15164,0,0,D1
107.508,0.16228370220080704,107.7,0.4000000000000057,-0.0008000000000000007,0.03502513383272075,-0.121,-0.00886,0.013990010721940137,0.046,0.03357725249923627,0.022162312934405817,0.0,0.21554,0,0,D1
108.3,1.0535653752852723,110.1,2.799999999999997,0.0030199999999999992,0.016867115936045497,-0.033,0.0003400000000000002,0.020417257406419698,0.046,0.03661851306844336,0.019854080201717805,0.0,0.31744000000000006,0,0,D1
107.67599999999999,1.9142162887197425,110.1,5.699999999999989,-0.00338,0.01793643219818256,-0.048,0.0046,0.018341210428976597,0.046,0.03642744728829521,0.01955098677966086,0.0,0.30036,0,0,D1
103.752,2.7886369430243163,108.3,8.599999999999994,0.003940000000000001,0.0254483083917183,-0.052,0.014800000000000002,0.02193809472128334,0.062,0.03367339157328265,0.018175332182724383,0.0,0.20046,0,0,D1
100.17800000000001,1.3848162332959577,104.4,5.800000000000011,0.0019599999999999995,0.03638733845721613,-0.101,0.03836,0.026229571098285234,0.114,0.05479311807608408,0.024251478542561242,0.0,0.16316,0,0,D1
98.352,0.9495767478197855,99.7,3.6000000000000085,-0.006240000000000001,0.032600343556471914,-0.101,0.04660000000000001,0.026805969484426415,0.114,0.05956700955619693,0.025678227597167678,0.0,0.1678,0,0,D1
96.55,1.2690547663517109,98.6,3.6999999999999886,-0.005580000000000001,0.017595556257191756,-0.036,0.03266,0.025802023176487537,0.086,0.04643091260975397,0.021830949457716912,0.0,0.41115999999999997,0,0,D1
93.70000000000002,2.0454828280872976,96.1,6.799999999999997,-0.014960000000000003,0.02242227463929563,-0.081,0.019,0.02584569596664017,0.071,0.04603593629943848,0.018714501570547982,0.0,0.7947599999999998,0,0,D1
90.53200000000001,1.7307154589937632,93.1,5.199999999999989,-0.01472,0.031140353241413305,-0.093,0.010639999999999998,0.028737265005563766,0.071,0.043793644047738514,0.02332459519520065,0.0,0.89178,0,0,D1
88.448,0.7183982182605942,89.3,1.7999999999999972,-0.011640000000000001,0.027060495191330112,-0.093,0.0052200000000000015,0.02565251644576025,0.055,0.03522992213989639,0.019606952491828963,0.0,0.6706200000000001,0,0,D1
87.36399999999999,0.5260266152962255,87.9,1.9000000000000057,-0.01848,0.017608225350670637,-0.061,-0.01084,0.03222257593675589,0.077,0.03920671329701398,0.01822069242498064,0.0,0.44996,0,0,D1
86.30799999999999,0.7293394271530904,87.5,2.0,-0.01758,0.014247933183448048,-0.058,-0.01972,0.02775394746698206,0.077,0.03819017480997556,0.017821631462453386,0.0,0.4538,0,0,D1
85.42,0.5035871324805671,86.5,1.7000000000000028,-0.014140000000000002,0.009771407268147203,-0.038,-0.00954,0.02902358351410108,0.063,0.03444921736107673,0.012326046536067036,0.0,0.50346,0,0,D1
85.76799999999999,0.7267571809070758,86.7,1.9000000000000057,-0.0151,0.013866866985732572,-0.05,-0.007800000000000001,0.025642152795738508,0.063,0.0335116280252551,0.012364092651583343,0.0,0.44998,0,0,D1
86.17199999999998,0.43452963075030765,86.7,1.2999999999999972,-0.013920000000000002,0.01455313024747597,-0.05,-0.022080000000000002,0.021866723577161715,0.057,0.03614937064170131,0.014294859293078168,0.0,0.43722,0,0,D1
85.322,0.8502446706683919,86.7,3.5,-0.012960000000000003,0.011182057055837268,-0.038,-0.034460000000000005,0.016766884027749465,0.069,0.039741737924381765,0.015897618272865784,0.0,0.47612000000000004,0,0,D1
83.76799999999999,1.0135955801008598,85.4,3.200000000000003,-0.0125,0.015216109883935512,-0.05,-0.021940000000000005,0.020803278587761116,0.069,0.03385693998839659,0.01703254574695491,0.0,0.4672000000000001,0,0,D1
82.93799999999999,0.7022506674970125,84.7,2.5,-0.008480000000000001,0.04355651042037229,-0.154,-0.00384,0.016872889497652734,0.039,0.0436108362737052,0.028190334505076006,0.0,0.38622,0,0,D1
84.56800000000001,1.77408455266371,86.8,4.599999999999994,-0.0036800000000000023,0.04633505800147444,-0.154,-0.00268,0.015537618865192953,0.059,0.044564136222122394,0.02896649379500596,0.0,0.2299,0,0,D1
86.95,1.1137773565663802,88.6,3.8999999999999915,-0.0038599999999999997,0.02925680091876075,-0.056,0.004919999999999999,0.027492428048464544,0.073,0.04018975841897547,0.02345300232858023,0.0,0.08152000000000001,0,0,D1
87.80400000000002,0.6029792699587571,88.6,1.6999999999999886,-0.00776,0.026174460834943666,-0.056,0.011219999999999999,0.026569373346016275,0.073,0.04120685572966516,0.020711229825255698,0.0,0.04746,0,0,D1
88.69599999999998,1.133659560891188,91.2,3.799999999999997,-0.01756,0.021390801761504874,-0.062,0.00638,0.020382237364921448,0.052,0.035840753810106256,0.01335141813903505,0.0,0.05418000000000001,0,0,D1
90.008,0.8869813977756249,91.2,2.6000000000000085,-0.026300000000000004,0.02864698937061275,-0.143,0.009500000000000001,0.018602419197512994,0.043,0.042450269691668714,0.021787028322022107,0.0,0.12337999999999999,0,0,D1
89.772,0.9581315149811112,91.2,3.4000000000000057,-0.024940000000000004,0.02762492352930592,-0.143,0.01916,0.020255725116618266,0.066,0.045116604272506355,0.021600278213904114,0.0,0.22556,0,0,D1
87.744,1.6932997371995309,90.0,6.799999999999997,-0.023880000000000002,0.013238791485630402,-0.049,0.01686,0.024219009063130553,0.066,0.042668602581477956,0.01385822332566092,0.0,0.27016,0,0,D1
85.024,1.6731479312959736,87.8,4.599999999999994,-0.018500000000000003,0.014142489172702237,-0.049,0.0067599999999999995,0.017841031360322196,0.043,0.036295746903615804,0.01158787110338495,0.0,0.20972,0,0,D1
84.24199999999999,0.8635021713927536,86.4,3.200000000000003,-0.01272,0.00975303029832267,-0.041,-5.99999999999997e-05,0.01657517420722932,0.043,0.030397068684745888,0.01076838963702749,0.0,0.08335999999999999,0,0,D1
85.962,1.2659999999999991,87.6,3.299999999999997,-0.013760000000000003,0.010737895510760011,-0.041,-0.00246,0.017526220356939484,0.043,0.027982647511877262,0.011902581158136631,0.0,0.07676,0,0,D1
87.928,0.9455241932388598,89.1,2.6999999999999886,-0.014180000000000002,0.01408075282078341,-0.047,0.0005400000000000001,0.016671184720948896,0.039,0.02599800953393614,0.010952785046432966,0.0,0.14526,0,0,D1
88.85799999999999,0.4766927731778618,89.7,2.1000000000000085,-0.0131,0.019342440383777845,-0.055,0.0004400000000000001,0.015398909052267306,0.039,0.027156884916672456,0.012663475100564139,0.0,0.19418,0,0,D1
88.866,0.81008888401212,89.7,2.700000000000003,-0.010439999999999998,0.02000115996636195,-0.055,0.005620000000000001,0.01331749225642726,0.035,0.032312026745025646,0.014309190320515952,0.0,0.19378,0,0,D1
87.54,1.4636939570825587,89.7,3.700000000000003,-0.0142,0.020339124858262708,-0.063,0.010719999999999999,0.01731246949455796,0.059,0.03752403366947977,0.014867645986226223,0.0,0.16566000000000003,0,0,D1
86.09599999999999,0.5126246189952252,87.0,1.7000000000000028,-0.01328,0.024510438592567046,-0.063,0.0031,0.02257099909175489,0.059,0.037083030323237454,0.013480684776592458,0.0,0.08600000000000002,0,0,D1
86.11400000000002,0.5325448337933624,87.3,2.0,-0.00924,0.022109328348007322,-0.06,0.006079999999999999,0.022964180804026083,0.047,0.03550710290745043,0.011994400490217284,0.0,0.05774,0,0,D1
86.742,0.5546494388350175,87.4,1.5,-0.011080000000000001,0.01868993311919548,-0.06,0.009600000000000001,0.028474550040343043,0.065,0.0370705668960428,0.015201745623645197,0.0,0.17164,0,0,D1
87.17,0.39204591567825303,87.7,1.0,-0.011000000000000001,0.01502531197679436,-0.048,0.0009599999999999992,0.029157475885268257,0.065,0.033541241156569555,0.015296572873583299,0.0,0.18683999999999998,0,0,D1
87.50200000000001,0.5136107475510997,88.0,1.2999999999999972,-0.00962,0.01217191850120596,-0.029,-0.0032400000000000007,0.019054196388197536,0.056,0.025467978527379094,0.010908806980094452,0.0,0.23990000000000003,0,0,D1
88.23200000000003,0.7322403976837103,90.1,2.799999999999997,-0.007039999999999999,0.01740110341328963,-0.055,-0.00438,0.012394982855978462,0.027,0.023069557855771236,0.011585141360347035,0.0,0.4788,0,0,D1
89.446,0.9986410766636792,90.3,2.3999999999999915,-0.00524,0.01653306989037426,-0.055,0.00384,0.012169404258220697,0.033,0.02419284887848503,0.011490259489793327,0.0,0.5301,0,0,D1
89.79999999999997,0.5138093031466019,90.3,1.3999999999999915,-0.001559999999999999,0.011862815854593714,-0.023,0.00206,0.013535745269470758,0.033,0.021951972250764114,0.009588061029305265,0.0,0.41458,0,0,D1
89.06,0.3611094017053564,89.7,1.0,0.001,0.01122140811128443,-0.026,0.0021799999999999996,0.018963849820118277,0.043,0.025919367491885156,0.013689645313908138,0.0,0.30006,0,0,D1
88.18,0.702566722810015,88.9,1.8000000000000114,0.0006999999999999999,0.01232112007895386,-0.026,-0.0099,0.026180336132295933,0.056,0.03308358537294729,0.014655933230978788,0.0,0.20794,0,0,D1
88.26,0.886791971095818,89.7,2.6000000000000085,0.0021399999999999995,0.01800778720442909,-0.035,-0.00838,0.02593753265058186,0.056,0.033269707718365765,0.014315954328458615,0.0,0.15802,0,0,D1
88.96,0.6053098380168624,89.7,1.2999999999999972,5.999999999999957e-05,0.020994675515472964,-0.039,0.005620000000000001,0.026683245679639502,0.07,0.03690520583472395,0.015586718137461042,0.0,0.24251999999999999,0,0,D1
89.322,0.6475461373523919,89.9,1.4000000000000057,-0.00266,0.017085209978223857,-0.039,0.00754,0.03097367269149721,0.07,0.04181597095805471,0.01439460221177107,0.0,0.36478,0,0,D1
89.69599999999998,0.5549630618338505,90.4,1.9000000000000057,-0.0030400000000000006,0.013392475499324237,-0.039,0.01022,0.023888315135228773,0.061,0.03677992066848248,0.011911231490493977,0.0,0.25751999999999997,0,0,D1
89.508,0.6904607157543431,90.4,2.200000000000003,-0.010280000000000001,0.014105374862087149,-0.041,0.0007799999999999993,0.025593194407888983,0.06,0.03520521214208338,0.010523926930139009,0.0,0.11076000000000001,0,0,D1
88.88400000000001,0.6518772890659716,90.4,2.200000000000003,-0.01254,0.012267371356570241,-0.041,-0.002800000000000001,0.024377858806712296,0.06,0.03225156648460664,0.012045599166874086,0.0,0.12176000000000001,0,0,D1
88.0,0.5138093031466033,88.6,1.2999999999999972,-0.01046,0.016370962097567755,-0.046,0.00032000000000000057,0.01658365460325317,0.037,0.027660565298098145,0.009173501370232014,0.0,0.10196000000000001,0,0,D1
87.27799999999998,0.42392923937846055,87.8,1.2999999999999972,-0.012100000000000001,0.017947980387776227,-0.046,0.0007600000000000002,0.013953580185744446,0.037,0.0263477763388167,0.01073660477058231,0.0,0.14034000000000002,0,0,D1
87.464,0.5830128643520649,88.3,1.7999999999999972,-0.0089,0.013994641831786907,-0.043,0.0026799999999999997,0.01562362313933615,0.039,0.023703710621983204,0.010524927683802901,0.0,0.27752000000000004,0,0,D1
87.71800000000002,0.29979326209906654,88.3,0.7999999999999972,-0.00926,0.011804761751090109,-0.035,-0.00272,0.019647941367990692,0.039,0.026185496551827513,0.010675194159088146,0.0,0.28556,0,0,D1
88.06400000000002,0.8123447543992637,89.8,2.299999999999997,-0.00738,0.012998292195515532,-0.031,-0.00462,0.01816688195591087,0.042,0.03187959116411804,0.011466109506222545,0.0,0.26004,0,0,D1
91.05000000000001,3.1730899766631278,99.1,11.5,-0.007340000000000001,0.0166548611522282,-0.052,-0.012280000000000003,0.022579672273972447,0.054,0.04947200863531477,0.01787848879484341,0.0,0.48066000000000003,0,0,D1
100.43000000000002,8.10679344747354,112.3,22.5,-0.012940000000000002,0.017618637858813034,-0.052,0.01,0.04186167698504206,0.093,0.05966577386518573,0.015089580148848375,0.0,0.40055999999999997,0,0,D1
110.88400000000001,5.357176868463465,116.8,17.700000000000003,-0.01306,0.025667419036591893,-0.078,0.025980000000000003,0.041846141996604656,0.119,0.06483497033876935,0.027718344488278823,0.0,0.07392,0,0,D1
115.498,1.742812669221796,116.8,4.5,-0.0127,0.026305322655310655,-0.078,0.009519999999999999,0.049693959391459236,0.121,0.07763307115812786,0.03439427659592589,0.0,0.22924,0,0,D1
115.79199999999997,0.9874897467822096,116.8,2.3999999999999915,-0.011219999999999999,0.018172825867211737,-0.059,0.012600000000000002,0.03935225533562212,0.121,0.05929249444746927,0.03424032859358721,0.0,0.23756,0,0,D1
113.56599999999999,1.8271956654939823,116.1,6.199999999999989,-0.01022,0.01622009864334986,-0.05,0.011659999999999998,0.018325512271148113,0.048,0.034339024889089284,0.010165203867434568,0.0,0.037099999999999994,0,0,D1
110.64399999999998,1.8093269466848703,114.4,6.0,-0.01016,0.017957015342199827,-0.052,0.0044800000000000005,0.01623605863502593,0.042,0.028401259442155515,0.011582247713607765,0.0,0.015820000000000004,0,0,D1
107.714,1.663611733548428,109.9,5.200000000000003,-0.014079999999999997,0.024114593092150652,-0.078,-0.005980000000000001,0.012063979442953308,0.042,0.02926267899072597,0.016715729666566304,0.0,0.04845999999999999,0,0,D1
104.4,2.1707141681944213,107.3,6.0,-0.017460000000000003,0.020760741797922345,-0.078,-0.00834,0.013550808093984654,0.042,0.03004135948043801,0.016299592650342438,0.0,0.13663999999999998,0,0,D1
101.32,1.5471263684650989,104.7,5.200000000000003,-0.016540000000000003,0.01746219917421629,-0.056,-0.00732,0.01598053816365394,0.038,0.02830022046299887,0.013403638377159383,0.0,0.23200000000000004,0,0,D1
99.72200000000001,0.5375090696909238,100.7,1.6000000000000085,-0.013180000000000002,0.018613640159839774,-0.054,0.008479999999999998,0.02498738881916236,0.066,0.03394995063958493,0.013549939172178838,0.0,0.23656,0,0,D1
99.46,0.3072458299147468,99.9,0.9000000000000057,-0.01306,0.026830885188528535,-0.067,0.010660000000000001,0.023596279367730837,0.066,0.041444952150599866,0.013890138272691413,0.0,0.22146000000000002,0,0,D1
98.61200000000001,1.110610642844737,99.9,3.4000000000000057,-0.0178,0.0340716891274853,-0.1,-0.00294,0.030958300986972782,0.094,0.04936646050281535,0.02068894819520732,0.0,0.3821,0,0,D1
96.734,1.0896990410200422,99.0,3.5,-0.017140000000000002,0.02701703906796598,-0.1,-0.00196,0.03115892167582184,0.094,0.04363472439604913,0.021866202845506468,0.0,0.42692,0,0,D1
95.89200000000001,0.4672643791259921,96.6,1.0999999999999943,-0.014140000000000002,0.016783336974511356,-0.054,-0.013840000000000002,0.026628075409236774,0.069,0.03909291399429518,0.01678880804091344,0.0,0.20490000000000005,0,0,D1
95.72400000000002,0.6364149589693806,96.6,1.7999999999999972,-0.01076,0.018468957739948402,-0.061,-0.02046,0.029407624861589893,0.088,0.04090567302506523,0.019913962799163076,0.0,0.08058,0,0,D1
95.38199999999998,0.5294109934634896,96.6,1.7999999999999972,-0.008600000000000002,0.02049682902304647,-0.061,-0.00126,0.02967275518046816,0.088,0.034707361894486956,0.01850024406123105,0.0,0.06738,0,0,D1
95.344,0.20606794995826058,95.5,0.7999999999999972,-0.00574,0.017086614644217853,-0.035,0.0008800000000000002,0.02415337657554322,0.051,0.028710263584304476,0.013856434062187869,0.0,0.08593999999999999,0,0,D1
95.05399999999997,0.3699783777465923,95.5,0.7999999999999972,-0.007140000000000002,0.01777077375918111,-0.045,0.011840000000000002,0.029036776680616598,0.072,0.03533324177127775,0.015894087766601544,0.0,0.18732000000000004,0,0,D1
94.76400000000001,0.5757638404762846,95.8,1.7000000000000028,-0.015960000000000002,0.022051721021271786,-0.068,0.03234000000000001,0.020127205469215044,0.072,0.04717463441093356,0.017766650449501264,0.0,0.29703999999999997,0,0,D1
94.39200000000001,0.7320764987349339,95.8,2.0999999999999943,-0.01804,0.02419087431243443,-0.068,0.02496,0.02132694070887806,0.069,0.04283685529225126,0.02088166249776884,0.0,0.40586000000000005,0,0,D1
94.288,0.5093682361514087,95.1,1.3999999999999915,-0.02028,0.021830290882166457,-0.062,0.01486,0.01800112218724155,0.055,0.04132793362022129,0.017026505885899868,0.0,0.44575999999999993,0,0,D1
93.59999999999997,1.1679041056525097,95.1,3.6999999999999886,-0.023,0.014935862880998874,-0.062,0.00406,0.017185354229692213,0.046,0.04049102291125018,0.01364393871287223,0.0,0.44648000000000004,0,0,D1
90.95199999999998,2.3505097319517745,93.7,8.0,-0.01872,0.014802756500057683,-0.049,-0.00746,0.020902832343967167,0.056,0.036597667425813184,0.011545160847280252,0.0,0.49968,0,0,D1
87.016,2.936621187691734,91.4,8.900000000000006,-0.01732,0.018406998668984577,-0.049,-0.015140000000000002,0.020742237102106417,0.056,0.03884581079596668,0.012315964582766471,0.0,0.4932,0,0,D1
83.464,1.4904710664752954,85.7,3.9000000000000057,-0.021519999999999997,0.025904625069666613,-0.08,-0.016680000000000004,0.01909286777830926,0.055,0.042551323110864805,0.019364010470839514,0.0,0.50402,0,0,D1
83.41799999999999,1.4049469740883473,85.7,3.9000000000000057,-0.021500000000000005,0.035279030598926606,-0.111,-0.0034799999999999996,0.030037469933401516,0.065,0.04922573529903315,0.024097447671268472,0.0,0.64878,0,0,D1
86.21199999999999,1.8317903810207106,88.7,6.200000000000003,-0.01752,0.030356047173503996,-0.111,0.016200000000000003,0.03194745686279269,0.075,0.046837396878048346,0.022788116501549376,0.0,0.6356999999999999,0,0,D1
88.914,1.4207054585662717,91.2,5.5,-0.01616,0.016922600273007692,-0.051,-0.0016999999999999993,0.03888611577414231,0.09,0.041004698202700036,0.021034132387752258,0.0,0.5047800000000001,0,0,D1
91.76799999999999,2.0356266848319686,95.5,6.799999999999997,-0.0123,0.018184883832458212,-0.056,-0.05388,0.03538906045658743,0.125,0.062309945253127844,0.03025046648486945,0.0,0.52762,0,0,D1
95.02400000000002,1.8183025050854449,97.7,6.5,-0.0077,0.02018241809100188,-0.056,-0.04826,0.03688512437284169,0.125,0.06027138060537239,0.029023450517165254,0.0,0.47816000000000003,0,0,D1
96.93800000000002,0.7771460609177666,97.7,2.200000000000003,-0.011340000000000001,0.02107188648412856,-0.058,-0.01118,0.01895646591535458,0.053,0.038833467202867095,0.014347188749153823,0.0,0.31978,0,0,D1
97.67400000000002,0.5527422545816452,99.6,2.5,-0.00916,0.023796940979882268,-0.058,-0.0009600000000000003,0.017304288485806053,0.044,0.03643822149190983,0.015984868298066158,0.0,0.26562,0,0,D1
97.95,1.0239628899525601,99.6,3.0,-0.00586,0.026303619522795717,-0.064,0.0032600000000000003,0.014540715250633307,0.039,0.032835538693006316,0.014414832594937942,0.0,0.2915,0,0,D1
97.69,1.0171037311896947,99.6,3.0,-0.0088,0.021289433999052206,-0.064,0.00868,0.013482492351193826,0.035,0.02999016585655128,0.012480783304606568,0.0,0.26142,0,0,D1
97.48200000000001,0.5361678841557002,98.1,1.5,-0.01118,0.019960651291979426,-0.043,0.00958,0.010583175326904492,0.035,0.026932702654445882,0.010614590323097915,0.0,0.20021999999999998,0,0,D1
97.91999999999999,0.6082762530298255,98.4,1.8000000000000114,-0.0126,0.019294558818485588,-0.045,0.006500000000000001,0.012840950120610234,0.032,0.02906233903268307,0.011685908178202753,0.0,0.22190000000000001,0,0,D1
97.698,0.9379744132970786,98.4,2.5,-0.01094,0.01978626796543502,-0.045,0.00618,0.017330539518433927,0.045,0.03313197466687086,0.012719758436142854,0.0,0.31308,0,0,D1
96.41799999999998,0.9433323910478179,98.3,2.8999999999999915,-0.012159999999999999,0.03294562793452266,-0.096,0.00386,0.017393113579805084,0.045,0.0390925768314657,0.01950411332708954,0.0,0.2554,0,0,D1
96.44,0.7499333303701046,97.5,2.0999999999999943,-0.011540000000000002,0.03368454244902252,-0.096,0.006059999999999999,0.01615104950150299,0.041,0.0433409653539423,0.020095788667986475,0.0,0.20987999999999998,0,0,D1
96.69,1.0396634070698059,97.8,3.299999999999997,-0.01002,0.02025980256567176,-0.045,0.005680000000000001,0.013970597696591225,0.041,0.03197641062333148,0.01722698939594766,0.0,0.2735,0,0,D1
95.20000000000002,1.4422205101855947,97.8,3.8999999999999915,-0.00868,0.011567955739887666,-0.039,0.00010000000000000038,0.017146719802924405,0.048,0.025050320948158913,0.01080006575879196,0.0,0.25127999999999995,0,0,D1
91.76,2.3665164271561676,94.5,5.799999999999997,-0.00908,0.01066740830755062,-0.033,-0.0116,0.01968349562450735,0.048,0.029601820769121413,0.01059302634532795,0.0,0.20918000000000003,0,0,D1
88.26400000000001,1.4360724215721168,89.7,3.9000000000000057,-0.011219999999999999,0.012681151367285228,-0.051,-0.021239999999999995,0.013085197744015948,0.044,0.029728554417132565,0.012709565384685177,0.0,0.18252000000000002,0,0,D1
86.294,1.1633417382695426,88.7,3.700000000000003,-0.0104,0.01937730631434617,-0.053,-0.014459999999999999,0.014390566354386472,0.044,0.03315930293070131,0.013300399586102048,0.0,0.19692,0,0,D1
86.402,1.1098630546152974,88.6,3.5999999999999943,-0.00894,0.018656269723607663,-0.053,-0.00986,0.02284820343046691,0.062,0.037300296748480115,0.012890611408126616,0.0,0.18924,0,0,D1
88.8,1.8319388636087173,91.8,6.099999999999994,-0.010899999999999998,0.015863480072165752,-0.058,-0.0034800000000000005,0.026959406521657705,0.062,0.03348759594239749,0.015017353894702073,0.0,0.12138000000000002,0,0,D1
92.558,2.5155587848428436,95.8,7.200000000000003,-0.014199999999999999,0.017138261288707206,-0.058,0.0031999999999999997,0.025823245342133122,0.056,0.032159593569417666,0.017047009750975978,0.0,0.0597,0,0,D1
95.84200000000001,1.2178817676605553,99.1,5.099999999999994,-0.013720000000000001,0.019058898184312757,-0.057,0.0032999999999999995,0.02323467236696055,0.056,0.03459391018858265,0.019908324335922344,0.0,0.12125999999999999,0,0,D1
97.38199999999999,0.9496715221591079,99.1,3.299999999999997,-0.00992,0.019554886857253866,-0.057,0.01322,0.015650290732123796,0.052,0.03549359592323101,0.01824128965940729,0.0,0.22695999999999997,0,0,D1
97.44400000000002,0.7952760527011977,99.1,2.299999999999997,-0.00806,0.02054498478948086,-0.06,0.015360000000000002,0.0211988301564025,0.052,0.03603359268250178,0.015040618284882918,0.0,0.28288,0,0,D1
96.86,0.30397368307141104,97.2,1.0,-0.01072,0.02151840142761539,-0.073,0.0011000000000000003,0.0271656032511704,0.055,0.03655850326023801,0.016242408669011082,0.0,0.39712000000000003,0,0,D1
95.58,1.2905812643921317,97.1,3.299999999999997,-0.01386,0.017065766903365347,-0.073,-0.0011399999999999995,0.022469543831595693,0.055,0.033503328465548946,0.01499956605137421,0.0,0.3901200000000001,0,0,D1
94.15400000000001,0.540817899112077,96.2,2.4000000000000057,-0.0096,0.014729562111617576,-0.038,0.00592,0.015166858606844068,0.031,0.02657559778570466,0.008889184570726925,0.0,0.29932000000000003,0,0,D1
94.506,0.6909153349000133,95.6,1.7999999999999972,-0.0082,0.026752196171529543,-0.071,-0.00126,0.019867370233626797,0.055,0.033843601286001064,0.015506471294081935,0.0,0.33390000000000003,0,0,D1
95.26199999999997,0.5011546667447065,96.0,2.0,-0.011479999999999999,0.02829009720732681,-0.071,-0.01054,0.01978,0.055,0.03599088573146814,0.016292211153321166,0.0,0.33602000000000004,0,0,D1
94.81599999999999,0.7481604106072456,96.0,2.200000000000003,-0.01008,0.015316448674545938,-0.049,-0.0128,0.01606237840420901,0.05,0.02655217125552571,0.011487480211832114,0.0,0.26091999999999993,0,0,D1
94.72,0.6400000000000027,95.7,1.9000000000000057,-0.006960000000000001,0.011039855071512488,-0.027,-0.01076,0.017843273242317395,0.054,0.029601948766783893,0.017794511210165374,0.0,0.21515999999999993,0,0,D1
95.2,0.565685424949239,96.5,1.9000000000000057,-0.00594,0.014326772141693327,-0.037,-0.008620000000000001,0.017008103950764176,0.054,0.02932805607177215,0.019119757505025748,0.0,0.27598,0,0,D1
96.42,1.4551975810865,98.6,4.0,-0.0097,0.0164502279619463,-0.052,-0.008560000000000002,0.012762695640028403,0.044,0.02423442669296929,0.01223734296581972,0.0,0.37660000000000005,0,0,D1
99.53,2.146648550648196,103.6,7.099999999999994,-0.01042,0.014523209011785242,-0.052,-0.006699999999999999,0.013679546776117988,0.04,0.02277042904641205,0.010160096507529569,0.0,0.35332,0,0,D1
103.64800000000001,2.798659679203599,108.3,8.099999999999994,-0.00642,0.01739320556999198,-0.043,-0.003280000000000001,0.015427300476752243,0.036,0.02881223909811667,0.018878423614088036,0.0,0.24281999999999995,0,0,D1
105.20599999999999,1.5942910650191826,108.3,4.700000000000003,-0.0070799999999999995,0.026119601834637525,-0.058,0.0006599999999999998,0.014896455954353707,0.036,0.03742223770431557,0.019307929075944474,0.0,0.21880000000000002,0,0,D1
104.50800000000001,0.37514797080619117,105.5,1.4000000000000057,-0.014900000000000002,0.023313729860320508,-0.058,0.0012,0.01200833044182246,0.027,0.033011726201358484,0.013679398130273917,0.0,0.19988000000000003,0,0,D1
105.148,0.7305450020361512,106.1,2.0,-0.01378,0.01924711926497054,-0.052,0.00786,0.01443885036974897,0.035,0.02975843768069645,0.010595064266162134,0.0,0.10026,0,0,D1
105.59,0.2899999999999983,106.1,0.7999999999999972,-0.01018,0.022079574271258038,-0.055,0.008020000000000001,0.015487401331404827,0.035,0.02843136430413894,0.012088735409683426,0.0,0.1,0,0,D1
105.77999999999999,0.769935062196809,107.4,2.1000000000000085,-0.00872,0.021834871192658773,-0.055,-2.000000000000002e-05,0.012244982645965652,0.031,0.02662567970042579,0.011614352349155515,0.0,0.142,0,0,D1
107.148,1.2528750935348696,109.0,3.700000000000003,-0.00758,0.021866037592577218,-0.044,0.0028200000000000005,0.008858193946849436,0.018,0.03041825719637059,0.013026497193622262,0.0,0.11356000000000002,0,0,D1
108.236,0.5666603921221228,109.0,1.5999999999999943,-0.012840000000000002,0.03463429514224304,-0.101,-0.00212,0.01710981005154645,0.054,0.039540866949785786,0.0229216020569972,0.0,0.12854,0,0,D1
107.60800000000003,1.6923167552204887,109.0,5.400000000000006,-0.013640000000000003,0.03373470616442361,-0.101,-0.009300000000000001,0.018417654573804995,0.054,0.040265212777225036,0.02172815316599168,0.0,0.1534,0,0,D1
104.48999999999998,3.01955294704365,108.8,9.899999999999991,-0.0139,0.024139801159081656,-0.088,-0.005880000000000001,0.015195578304230477,0.04,0.03495669147939713,0.014455093248203002,0.0,0.13484,0,0,D1
100.63599999999998,1.8821009537216602,103.6,4.699999999999989,-0.01524,0.025558215900175818,-0.088,-0.0042,0.014427751037497147,0.032,0.03684829431899178,0.016711768481550888,0.0,0.15103999999999998,0,0,D1
98.49800000000003,0.8085765269904898,99.7,2.1000000000000085,-0.01542,0.02082987277925624,-0.064,-0.00416,0.018422117142174513,0.041,0.035839793797096085,0.014604423322460671,0.0,0.17638,0,0,D1
97.852,0.411941743454096,99.7,2.1000000000000085,-0.01024,0.02532315936055373,-0.055,0.006020000000000001,0.0186509946115482,0.041,0.03421545347999074,0.012978549347234056,0.0,0.1025,0,0,D1
97.662,0.3877576562751514,98.1,1.3999999999999915,-0.009260000000000001,0.04175203468095896,-0.098,0.01048,0.01823429735416202,0.04,0.044671022490438216,0.02311016550478954,0.0,0.02094,0,0,D1
97.57400000000001,0.4612201209834616,98.6,1.8999999999999915,-0.01616,0.038886172349564055,-0.098,0.02054,0.024380492201758357,0.062,0.051247423105390294,0.02194223382103814,0.0,0.019080000000000003,0,0,D1
99.04400000000001,2.4708832428910896,104.6,7.8999999999999915,-0.01898,0.025241624353436527,-0.086,0.04606,0.02175997242645312,0.099,0.05874272706128028,0.021405887447240514,0.0,0.04739999999999999,0,0,D1
99.62800000000001,2.332812894340221,104.6,6.299999999999997,-0.016479999999999998,0.053891461290263794,-0.176,0.04032,0.027458652552519763,0.099,0.07211584576036195,0.028927578368534147,0.0,0.07554,0,0,D1
98.34199999999997,1.0359710420663308,104.6,7.099999999999994,-0.01268,0.06511019582215984,-0.176,0.00726,0.027587540666032556,0.067,0.06433545348963332,0.039642268152607366,0.0,0.2046,0,0,D1
96.86800000000001,1.2855255734523536,98.7,3.9000000000000057,-0.015560000000000001,0.04456059245566647,-0.133,-0.013000000000000001,0.020654297373670204,0.067,0.05089328074602869,0.03082132338018447,0.0,0.5281199999999999,0,0,D1
94.808,1.4912866927589743,97.5,4.400000000000006,-0.0179,0.0242546902680698,-0.065,-0.01256,0.01882993361645229,0.041,0.04511755402044822,0.013608318015535095,0.0,0.63214,0,0,D1
93.54,1.3611759621738848,95.5,4.200000000000003,-0.0123,0.029572453398390878,-0.065,-0.009399999999999999,0.01957855970187797,0.05,0.04066116956637653,0.01540419713890908,0.0,0.4606,0,0,D1
91.62799999999999,2.17228359106264,95.5,6.299999999999997,-0.01712,0.029252446051569774,-0.09,-0.0216,0.023543151870554634,0.077,0.047434458106797146,0.023867387458926196,0.0,0.33234,0,0,D1
90.368,0.874400365965156,91.7,2.5,0.00178,0.04237607343773134,-0.09,-0.044800000000000006,0.021341040274550818,0.079,0.06568886084852056,0.02528267312654461,0.0,0.28484000000000004,0,0,D1
91.80400000000002,1.1678972557549738,93.4,3.5,0.0041800000000000006,0.042788638678976455,-0.092,0.00496,0.07168987655171405,0.124,0.08212558080449135,0.02398268078270157,0.0,0.39386000000000004,0,0,D1
93.066,0.5992028037317583,93.7,2.0,-0.019700000000000002,0.025345019234555732,-0.092,0.02712,0.07586504860606101,0.124,0.08487070371897974,0.031275607911680256,0.0,0.5368599999999999,0,0,D1
94.142,0.8736337905552882,95.3,2.5,-0.020139999999999998,0.01614683869988178,-0.061,-0.08600000000000002,0.09430079533068637,0.226,0.12472714237886239,0.0542923563128641,0.0,0.5337200000000001,0,0,D1
94.91599999999998,0.3139171865317332,95.3,1.5999999999999943,-0.021559999999999996,0.019946087335615474,-0.06,-0.15924000000000002,0.040555916954249725,0.232,0.16589303191366728,0.040335368629664956,0.0,0.46036,0,0,D1
94.73200000000001,0.33313060501851494,95.1,1.0,-0.013579999999999998,0.022233389305276872,-0.06,-0.08742,0.08066252909498932,0.232,0.1029510127209193,0.07069843689741037,0.0,0.28747999999999996,0,0,D1
93.91199999999999,1.0275485389994923,95.1,4.3999999999999915,-0.00994,0.019686960151328595,-0.061,-0.00764,0.021203546873105925,0.078,0.03667007894665095,0.016809084152516657,0.0,0.0808,0,0,D1
92.02400000000002,1.4754741610750086,95.1,4.3999999999999915,-0.01366,0.01813130993612982,-0.061,0.00268,0.014889513088076452,0.03,0.02878203780509877,0.012733196762237881,0.0,0.06135999999999999,0,0,D1
90.95,0.2765863337187863,92.2,1.5,-0.01298,0.016260983980067135,-0.046,0.014540000000000003,0.01804683905840577,0.051,0.03016718281860815,0.01274916000325799,0.0,0.10647999999999999,0,0,D1
91.53200000000001,0.48059962546802015,92.2,1.4000000000000057,-0.01262,0.0224774464741883,-0.085,0.01914,0.022072616519117075,0.051,0.03655256592999022,0.016577391952105076,0.0,0.07854000000000001,0,0,D1
91.85600000000002,0.40356412129920516,92.3,1.5,-0.0154,0.027215436796053816,-0.085,0.004399999999999999,0.026419689627245814,0.051,0.0379336195753087,0.01869814177707925,0.0,0.10234,0,0,D1
91.34800000000001,0.574887815143094,92.3,1.5,-0.01418,0.02516560350955248,-0.079,0.0028000000000000004,0.021720036832381294,0.042,0.034253297344898306,0.015510371401161958,0.0,0.08719999999999999,0,0,D1
91.182,0.3570378131234844,91.8,1.0,-0.012159999999999999,0.016339351272311887,-0.049,0.01784,0.017543500220879527,0.057,0.0314889584475148,0.012327428600104986,0.0,0.04584,0,0,D1
91.67399999999999,0.37513197677617194,92.3,1.0999999999999943,-0.01164,0.012094230029232949,-0.034,0.036520000000000004,0.02142824304510288,0.088,0.042600669450635564,0.019143744731835676,0.0,0.09874,0,0,D1
91.914,0.25613277806637713,92.3,0.7999999999999972,-0.012180000000000002,0.01697844515849434,-0.062,0.038200000000000005,0.02410891951125143,0.088,0.04636351052327718,0.021267460872374157,0.0,0.20372,0,0,D1
92.54599999999999,0.7473178707885962,94.7,2.9000000000000057,-0.014640000000000002,0.0182293828749083,-0.065,0.018680000000000002,0.025217010132051736,0.074,0.03490468806374361,0.02036523388455812,0.0,0.35752,0,0,D1
93.898,0.8474644535318278,94.7,2.5,-0.016220000000000002,0.017988096063786183,-0.065,0.01254,0.0248517283101196,0.086,0.03678764829158583,0.019598186986927703,0.0,0.5108400000000001,0,0,D1
94.458,0.24256133245016678,94.7,0.7000000000000028,-0.016400000000000005,0.015744205283214522,-0.056,0.00984,0.02242798252184088,0.086,0.03434540253661245,0.017282746442566783,0.0,0.5148,0,0,D1
94.46800000000003,0.2564683216305655,94.8,0.7999999999999972,-0.01566,0.013128000609384509,-0.045,-0.0023799999999999997,0.01741366130370061,0.052,0.029379920605108526,0.012693315770023191,0.0,0.34152,0,0,D1
93.82400000000001,1.021872790517488,94.8,3.0,-0.01696,0.01298454465893972,-0.045,-0.0011800000000000003,0.01752448572711907,0.052,0.03292602742866154,0.013744697805591347,0.0,0.21513999999999997,0,0,D1
91.75000000000001,1.4664583185348312,94.6,4.5,-0.020000000000000004,0.012059850745345069,-0.044,0.0010200000000000007,0.013473663198996774,0.035,0.029391118445998933,0.012601672765679216,0.0,0.24712,0,0,D1
90.52799999999999,0.5411247545621996,91.8,1.7000000000000028,-0.022080000000000002,0.011811587530895245,-0.044,-0.0012000000000000003,0.010648943609579308,0.025,0.026306715472317225,0.010575288225790607,0.0,0.39232,0,0,D1
91.03400000000002,0.5897830109455499,92.0,1.9000000000000057,-0.021540000000000004,0.018106584437712157,-0.058,0.0002800000000000004,0.018481385229468055,0.047,0.03220366998841264,0.013319295750054153,0.0,0.46756,0,0,D1
92.848,1.6473299608760845,96.0,5.0,-0.019860000000000003,0.022720924276974298,-0.063,0.008740000000000001,0.023272997228547938,0.064,0.03813945819256265,0.015607745794244775,0.0,0.35124,0,0,D1
93.85600000000001,1.2552545558570987,96.0,4.799999999999997,-0.019620000000000002,0.023241247815037818,-0.069,0.00246,0.02679120004777688,0.064,0.043761896152176245,0.016505043022244495,0.0,0.26808,0,0,D1
91.79599999999999,1.9861480307368828,96.0,6.599999999999994,-0.01846,0.021102805500691133,-0.069,0.0009400000000000003,0.027570571267204455,0.054,0.04226463983743285,0.015825935024891387,0.0,0.34192,0,0,D1
89.956,0.6609568821035141,91.2,1.7999999999999972,-0.01656,0.016195258565394995,-0.049,0.00844,0.022011960385208768,0.053,0.032464143444570735,0.013020729258007593,0.0,0.34535999999999994,0,0,D1
90.43800000000003,0.8253217554384434,92.1,2.6999999999999886,-0.01658,0.01593372523925275,-0.049,-0.007000000000000001,0.027706316969240065,0.073,0.03543787712402469,0.014487127560097186,0.0,0.24338,0,0,D1
91.09200000000001,0.7977067130217713,92.1,1.7999999999999972,-0.017560000000000003,0.024536633835960466,-0.082,-0.03848,0.03888662494997477,0.092,0.05775816479194718,0.026213248556145652,0.0,0.21136,0,0,D1
91.19200000000001,0.7210658777115988,92.1,1.7999999999999972,-0.014480000000000002,0.024075913274474142,-0.082,-0.04955999999999999,0.027927162405085127,0.092,0.058409593750502975,0.026764143137810382,0.0,0.33222,0,0,D1
91.25999999999998,0.6606057825965497,92.9,2.6000000000000085,-0.010320000000000003,0.018431972222201293,-0.043,-0.020199999999999996,0.03141719274537431,0.071,0.057820950198541284,0.023449471596132154,0.0,0.3691799999999999,0,0,D1
93.98000000000003,3.10959804476398,98.6,7.699999999999989,-0.008100000000000001,0.018535641343098975,-0.041,-0.0017599999999999998,0.02421368208265732,0.06,0.05407200748565119,0.02561870423092631,0.0,0.1979,0,0,D1
100.66,4.373602633984941,106.7,13.799999999999997,-0.0116,0.02414125100321025,-0.079,-0.0018599999999999999,0.016266542349251734,0.041,0.03639094573033977,0.017618713598088413,0.0,0.11050000000000003,0,0,D1
106.79800000000003,2.591639635443168,110.6,7.5,-0.018260000000000002,0.038289847218290124,-0.111,0.0028400000000000005,0.019802383694898954,0.041,0.04382648172844721,0.023518067507898727,0.0,0.19724,0,0,D1
109.74600000000002,1.3686796557266419,110.7,4.0,-0.02574,0.044001277254188884,-0.112,0.008440000000000001,0.015587379510360298,0.04,0.05195964024621841,0.02602759661366297,0.0,0.18398000000000003,0,0,D1
110.598,0.25178562310029,110.8,0.7000000000000028,-0.023740000000000004,0.03780201581926551,-0.112,0.006600000000000002,0.015489351180730585,0.049,0.043906656507213385,0.02677845242648605,0.0,0.11922,0,0,D1
110.554,0.22289908030317296,110.8,0.7000000000000028,-0.019420000000000003,0.024089076362534115,-0.077,0.0023000000000000004,0.016673631877908306,0.049,0.031044269897401593,0.019401889251752923,0.0,0.1404,0,0,D1
110.32599999999996,0.42181038394046333,110.8,1.2000000000000028,-0.0202,0.015815182578775372,-0.049,-0.00010000000000000013,0.013473306943731373,0.03,0.02669461729854204,0.012486689204283904,0.0,0.12423999999999999,0,0,D1
109.70200000000003,0.7179108579761151,110.8,2.200000000000003,-0.00988,0.023337214915237853,-0.054,0.0027400000000000002,0.013103907814083554,0.034,0.027375313786962573,0.01217177863195585,0.0,0.10006,0,0,D1
108.63,0.7321885003194195,109.9,2.3000000000000114,-0.01012,0.024903525854786106,-0.067,0.0010199999999999999,0.011626676223237663,0.034,0.0275724838274088,0.013750568555055466,0.0,0.18694000000000002,0,0,D1
107.62000000000003,0.4955804677345595,108.4,1.3000000000000114,-0.01386,0.02130728513912554,-0.067,0.0015400000000000004,0.009934203541301135,0.026,0.025469622019091896,0.013154404365253076,0.0,0.20399999999999996,0,0,D1
107.13600000000001,0.15844241856270622,107.6,0.5999999999999943,-0.0176,0.03358154254944225,-0.101,-0.00040000000000000024,0.013465511501610329,0.033,0.03543131586998914,0.022088953250913815,0.0,0.11269999999999998,0,0,D1
106.876,0.3134070835191813,107.1,1.0999999999999943,-0.018019999999999998,0.0373247853309299,-0.101,0.0018599999999999997,0.019703816889120748,0.056,0.041704991078812564,0.02227765066420076,0.0,0.08943999999999999,0,0,D1
106.22,0.5381449618829489,107.0,1.5,-0.00686,0.02963714561154633,-0.082,0.009100000000000002,0.017139719951037705,0.056,0.033880014884113685,0.016361680581536708,0.0,0.09300000000000001,0,0,D1
105.77400000000002,0.1786728854639102,106.1,0.5999999999999943,-0.0006199999999999997,0.023852790193182854,-0.064,0.0008400000000000001,0.016960377354292563,0.044,0.02708172826163554,0.015079787610007351,0.0,0.1598,0,0,D1
106.06400000000002,0.3631859028101181,106.7,1.2000000000000028,-0.0014400000000000005,0.02479609646698448,-0.053,-0.002979999999999999,0.015623687144845163,0.044,0.026861650643673123,0.01479025776304305,0.0,0.15910000000000002,0,0,D1
107.11200000000001,1.054825103986438,109.6,3.5,-0.0026,0.023644026729810638,-0.053,0.00208,0.015888159112999845,0.04,0.02708772566141525,0.012428801973316084,0.0,0.12510000000000002,0,0,D1
109.40799999999999,1.7304149791307255,112.0,4.799999999999997,-0.00502,0.019285735661363816,-0.059,0.0027400000000000002,0.016204703021036826,0.04,0.026841210972445434,0.011987051077419963,0.0,0.1109,0,0,D1
111.98599999999999,1.2669664557516946,113.9,4.300000000000011,-0.01196,0.018868979834638647,-0.059,0.0152,0.023036492788616934,0.064,0.035538361549412485,0.01599139951296448,0.0,0.14724,0,0,D1
113.66600000000003,0.8650109825892371,114.6,2.5999999999999943,-0.012,0.01478918523786892,-0.048,0.01278,0.024511458544933636,0.064,0.0317811315160373,0.016020601722792457,0.0,0.3709,0,0,D1
114.40599999999999,0.37170418345775946,114.9,1.0,-0.009120000000000001,0.017891495186260986,-0.044,0.0022,0.014929166085217218,0.042,0.025611555489774545,0.01069430808393882,0.0,0.5264,0,0,D1
113.45,1.1749468073066107,114.9,3.6000000000000085,-0.011260000000000001,0.020757466126673552,-0.044,0.0076,0.013044539087296263,0.042,0.028806138277058257,0.011697281631344916,0.0,0.5076200000000001,0,0,D1
111.00000000000004,1.7064583206161275,112.9,4.800000000000011,-0.014260000000000002,0.02296763810233869,-0.057,0.0026,0.014031393373432306,0.041,0.02967618545405673,0.013002461955200321,0.0,0.5233399999999999,0,0,D1
108.752,1.2665291153384513,111.3,3.5999999999999943,-0.011779999999999999,0.02406182869193445,-0.057,-0.0037199999999999998,0.014233818883209102,0.041,0.030198074501777507,0.012378057052102126,0.0,0.5452400000000001,0,0,D1
107.744,0.2684473877690004,108.1,0.7999999999999972,-0.00818,0.020554989661880154,-0.046,-0.0027799999999999995,0.016107501358062958,0.032,0.027919393611767557,0.010409969277149328,0.0,0.55408,0,0,D1
107.48599999999999,0.23152537657889927,107.9,0.6000000000000085,-0.0119,0.02570933682536366,-0.056,-0.0152,0.02524519756310099,0.062,0.03788391394860647,0.018594866601688232,0.0,0.53798,0,0,D1
108.11,0.9077995373429081,109.5,2.200000000000003,-0.014540000000000003,0.02661819678340364,-0.056,-0.019880000000000002,0.022159097454544488,0.062,0.03922591141842416,0.01930305347332233,0.0,0.33494000000000007,0,0,D1
109.212,0.6376958522681463,109.7,2.299999999999997,-0.013560000000000001,0.029318362846516517,-0.085,-0.013560000000000001,0.014661732503357165,0.048,0.034668665554281775,0.018832515198065194,0.0,0.13986,0,0,D1
109.63199999999999,0.11565465835840973,109.9,0.4000000000000057,-0.01224,0.028191885357315146,-0.085,-0.0097,0.014676852523616907,0.034,0.03291379460858133,0.017893633629425934,0.0,0.14345999999999998,0,0,D1
109.72,0.09797958971133025,109.9,0.30000000000001137,-0.0162,0.027124896313165885,-0.096,-0.00466,0.022691505018398405,0.079,0.033776909696914326,0.02195815045322567,0.0,0.20752000000000004,0,0,D1
109.39400000000002,0.5728560028488836,109.9,1.7000000000000028,-0.02122,0.03206573872531241,-0.096,0.0024199999999999994,0.025364613145088574,0.079,0.040882864129655694,0.022625901541289167,0.0,0.14994000000000002,0,0,D1
109.34200000000001,0.5473901716326289,110.2,2.0,-0.018680000000000002,0.033237593173995016,-0.094,0.01602,0.01555826468472625,0.047,0.04176465935866681,0.01828696882084413,0.0,0.09899999999999999,0,0,D1
109.774,0.46853388351324265,110.3,1.5,-0.01172,0.02750493773852251,-0.076,0.01624,0.014608983537536074,0.048,0.04137874027818071,0.016903249776030208,0.0,0.12672,0,0,D1
108.506,1.6050433015965642,110.3,4.799999999999997,-0.008560000000000002,0.02511585953137977,-0.06,0.012400000000000001,0.014123738881755072,0.048,0.03793766919430146,0.013825818460537884,0.0,0.1497,0,0,D1
105.57800000000002,1.845133057532709,108.8,6.200000000000003,-0.01274,0.02520461068931635,-0.06,0.00536,0.017563325425442644,0.047,0.032526779568546715,0.01361501417183149,0.0,0.24332000000000004,0,0,D1
103.02400000000002,1.3076023860486023,105.5,3.5999999999999943,-0.01274,0.02158685711260442,-0.07,-0.0024400000000000003,0.016458626917212747,0.047,0.03043519833013807,0.012654592154832991,0.0,0.3445200000000001,0,0,D1
101.67000000000002,0.5235456045083356,102.6,1.6999999999999886,-0.01008,0.020414543835217087,-0.07,-0.002,0.013043005788544296,0.033,0.027504988349400454,0.012847397242217794,0.0,0.31098,0,0,D1
101.044,0.4850402045191685,102.1,1.3999999999999915,-0.01568,0.01613869883230987,-0.048,-0.00426,0.012022994635281179,0.037,0.02637844052888406,0.011835449939234546,0.0,0.21247999999999995,0,0,D1
101.38000000000002,0.9303762679690374,103.1,2.3999999999999915,-0.01684,0.016318529345501695,-0.048,-0.0077,0.010564563407921787,0.037,0.02694571766319484,0.0106389989949896,0.0,0.23262,0,0,D1
103.10799999999999,1.320278758444595,104.4,3.700000000000003,-0.00782,0.020219485651222686,-0.059,0.0006199999999999999,0.014698149543394911,0.032,0.029707934012244724,0.01458213484796082,0.0,0.30682000000000004,0,0,D1
103.98000000000003,0.51146847410178,104.4,1.3000000000000114,-0.00618,0.020149133976426876,-0.059,0.00276,0.014599397247831844,0.029,0.028569657785965524,0.01508690339310289,0.0,0.25412,0,0,D1
103.32,0.5919459434779534,104.4,2.1000000000000085,-0.0111,0.0171618763542918,-0.043,0.0006799999999999999,0.01384549024050792,0.033,0.023957019503356332,0.009952950141330182,0.0,0.19118000000000002,0,0,D1
102.32199999999999,0.6404029981191498,103.1,1.6999999999999886,-0.01094,0.02185169101007975,-0.051,0.0014199999999999998,0.01682746564399999,0.044,0.029021374844230296,0.012615062510771673,0.0,0.26248,0,0,D1
101.28,0.8399999999999979,102.3,2.8999999999999915,-0.01508,0.022699638763645554,-0.052,0.0005599999999999998,0.016453765526468402,0.044,0.031613128600450756,0.01471835928666517,0.0,0.35295999999999994,0,0,D1
99.68,1.37025545063685,101.8,4.0,-0.014539999999999999,0.018885137013005756,-0.052,-0.0010599999999999995,0.01793032068871051,0.045,0.02914690916071534,0.013959859826552994,0.0,0.36223999999999995,0,0,D1
97.85400000000001,0.9248156573069071,99.4,3.1000000000000085,-0.006959999999999999,0.0182690558048302,-0.049,-0.00426,0.018363888477117257,0.045,0.026536336524252014,0.012864013521123516,0.0,0.34432,0,0,D1
96.30799999999999,0.9494924960209,97.7,2.4000000000000057,-0.00938,0.018672857306796943,-0.053,-0.0113,0.019091621198840083,0.065,0.02833801998118703,0.01626396702978227,0.0,0.33332,0,0,D1
95.448,0.22292599668948335,96.3,1.0,-0.01386,0.01838805046762707,-0.053,-0.012000000000000002,0.024123847122712413,0.067,0.033107191446675455,0.016962720138974756,0.0,0.33964,0,0,D1
95.82400000000001,0.44567252551621356,96.5,1.0999999999999943,-0.011960000000000002,0.01712070092023104,-0.051,0.0040999999999999995,0.02761322147088239,0.083,0.0324509619045812,0.01647771438845266,0.0,0.3528,0,0,D1
96.40799999999999,0.28131121556027505,96.7,1.2000000000000028,-0.011239999999999998,0.015142734231307107,-0.044,0.0048000000000000004,0.02313611894851857,0.083,0.027524045590958474,0.014478498344332517,0.0,0.31394,0,0,D1
96.85599999999998,0.33115555257311025,97.4,0.9000000000000057,-0.011,0.014985326155943354,-0.044,-0.0024400000000000003,0.014549446724875828,0.033,0.02258997747280081,0.009966590077772435,0.0,0.32933999999999997,0,0,D1
97.318,0.3011245589452972,97.7,1.0,-0.0111,0.01696850022836432,-0.065,-0.00011999999999999983,0.01386310210595017,0.037,0.024150536852714084,0.012285421023542452,0.0,0.35077999999999987,0,0,D1
96.72400000000002,1.0659380845058533,97.7,3.6000000000000085,-0.01594,0.020165723393917707,-0.065,0.00254,0.018522645599373756,0.045,0.031104023140322526,0.016006865542206594,0.0,0.3093,0,0,D1
94.402,1.7802797532972165,97.4,5.400000000000006,-0.012220000000000002,0.02928227450182106,-0.071,0.01416,0.021107685803990923,0.066,0.03840665174392774,0.01747939077372699,0.0,0.25239999999999996,0,0,D1
91.40799999999999,1.6784326021619072,94.1,5.3999999999999915,-0.0074399999999999996,0.028384615551386282,-0.071,0.027120000000000002,0.022689768619357932,0.086,0.043193499479688,0.019383023569561914,0.0,0.2659,0,0,D1
71.74,4.231595443801308,77.8,12.099999999999994,-0.00768,0.025678348856575647,-0.065,-0.01574,0.02196343324710415,0.06,0.038991749238658245,0.02540912220659333,0.0,0.04435999999999999,0,0,D1
77.53,2.797874193025839,80.6,9.099999999999994,-0.0036,0.03469409171602565,-0.104,0.00438,0.03058227591269165,0.074,0.054210490728189696,0.02966585065372069,0.0,0.07935999999999999,0,0,D1
81.40799999999999,2.044880436602593,86.1,6.599999999999994,-0.00976,0.04234409521999496,-0.137,0.03894,0.0316274627499583,0.12,0.06767763206702576,0.031602185332667836,0.0,0.20792000000000002,0,0,D1
85.50599999999999,2.839535877568727,88.9,8.300000000000011,-0.011120000000000001,0.03586844853070732,-0.137,0.03324,0.03749643183024219,0.12,0.0603593146145963,0.032529880713832664,0.0,0.27916,0,0,D1
88.95999999999998,1.4205632685663836,91.7,5.6000000000000085,-0.00768,0.019838790285700385,-0.064,0.014080000000000002,0.027567255938885173,0.073,0.043315240373589935,0.020354113868653777,0.0,0.25001999999999996,0,0,D1
91.186,1.394562296923302,93.0,4.099999999999994,-0.015260000000000003,0.03347704288015894,-0.107,0.026179999999999995,0.02621426329310057,0.086,0.05412829790830662,0.023998070038017825,0.0,0.22773999999999997,0,0,D1
92.794,0.5947806318299216,93.7,2.0,-0.01648,0.034245139801145505,-0.107,0.023900000000000005,0.024459149617270016,0.086,0.051034007254676626,0.027752299067457707,0.0,0.18606,0,0,D1
93.322,0.34772978014544603,93.7,0.9000000000000057,-0.01348,0.019311385242907875,-0.063,-0.0016,0.016906803364326446,0.044,0.030405464257297975,0.015579722182958687,0.0,0.15764,0,0,D1
93.38799999999999,0.39831645710414376,93.6,1.1999999999999886,-0.014760000000000002,0.01382397916665097,-0.043,-0.00874,0.013524511081736005,0.044,0.028402955477267868,0.009821004029952306,0.0,0.12756,0,0,D1
92.83599999999998,0.5992528681616762,93.6,1.2999999999999972,-0.01662,0.010548725041444584,-0.043,-0.0022400000000000002,0.016782800719784524,0.043,0.02808096058009624,0.010381697977647052,0.0,0.146,0,0,D1
92.586,0.31749645667313914,93.1,0.7999999999999972,-0.01352,0.01081894634426107,-0.032,-1.9999999999999947e-05,0.018800521269369104,0.043,0.024580316271060828,0.009729750871148878,0.0,0.19914,0,0,D1
93.234,0.5175364721447175,94.0,1.5999999999999943,-0.009040000000000001,0.01345505109614973,-0.035,0.004320000000000001,0.019402515300857258,0.05,0.024711523458700625,0.009859036887550878,0.0,0.20354,0,0,D1
94.09199999999998,0.541789627069401,94.9,1.8000000000000114,-0.01012,0.014912598700427769,-0.035,0.00376,0.020204514347046305,0.05,0.026229187344331086,0.009803557071593052,0.0,0.21515999999999993,0,0,D1
94.92800000000001,0.5284089325512948,95.8,1.7999999999999972,-0.015280000000000002,0.014705155558510765,-0.041,-0.00892,0.01958043921877137,0.054,0.02824777702809018,0.012031753528530278,0.0,0.29436,0,0,D1
95.68400000000001,0.4763863977907023,96.4,1.5,-0.014119999999999999,0.014450799285852668,-0.041,-0.0113,0.014846211637990346,0.054,0.02789532127202886,0.013058753812301316,0.0,0.3075,0,0,D1
95.336,0.756243347078175,96.4,1.9000000000000057,-0.01102,0.01397066927530675,-0.041,-0.00488,0.01568775318520788,0.035,0.026704763372775334,0.01104968837588088,0.0,0.24526000000000003,0,0,D1
94.73400000000001,0.2642801543816694,95.8,1.2999999999999972,-0.014760000000000002,0.013020844826661595,-0.039,-0.0020399999999999997,0.01684631710493424,0.035,0.025334543527368695,0.01112478782988067,0.0,0.21722000000000002,0,0,D1
95.09599999999999,0.3130239607442244,95.4,0.9000000000000057,-0.01498,0.009880263154390171,-0.036,-0.004260000000000001,0.013767803020090027,0.033,0.02496106203947481,0.012815045136927506,0.0,0.20986000000000002,0,0,D1
94.69200000000001,0.8187404961280496,95.4,1.9000000000000057,-0.012139999999999998,0.015888373107401522,-0.056,0.0028799999999999997,0.020641356544568477,0.05,0.029929541305778618,0.014140104569121523,0.0,0.14596,0,0,D1
93.652,0.6184626100258629,95.2,2.1000000000000085,-0.007499999999999999,0.020361974363995256,-0.056,0.0037999999999999996,0.022721795703685044,0.05,0.030426708286604844,0.013836019038793352,0.0,0.11846000000000002,0,0,D1
93.66400000000002,0.4497821694998594,94.3,1.2000000000000028,-0.007760000000000001,0.017588132362476694,-0.054,-0.00804,0.018993641041148483,0.04,0.026868242331563468,0.013715595284652458,0.0,0.16616,0,0,D1
94.572,0.5983443824420863,95.5,1.9000000000000057,-0.013340000000000001,0.013625872449131469,-0.046,-0.00762,0.02206163185260782,0.051,0.02781901749445397,0.013443298168353775,0.0,0.16477999999999998,0,0,D1
95.458,0.5280492401282317,96.4,2.1000000000000085,-0.0121,0.012073524754602527,-0.042,0.0017200000000000004,0.026340113894970162,0.064,0.030272243163025448,0.013068714316207956,0.0,0.1802,0,0,D1
96.08800000000001,0.43018135710418653,96.6,1.0999999999999943,-0.00932,0.013663733018469,-0.039,0.0010400000000000001,0.022637985776124164,0.064,0.02744647613299307,0.012677182174325717,0.0,0.28814,0,0,D1
96.17200000000001,0.25458986625551266,96.6,0.7999999999999972,-0.00904,0.01363078867857616,-0.039,0.0054,0.02106276335146934,0.043,0.026851158810540215,0.011046957523732437,0.0,0.3997599999999999,0,0,D1
95.756,0.32994545003681847,96.1,1.0999999999999943,-0.00914,0.011980000000000001,-0.036,0.01126,0.01991864453219646,0.05,0.02600457012993852,0.012382339534882303,0.0,0.35605999999999993,0,0,D1
95.07199999999999,0.6073022311831239,95.8,1.8999999999999915,-0.01056,0.013945838088834962,-0.038,0.00458,0.018196801916820438,0.055,0.024344960724460286,0.011867724606026468,0.0,0.3275,0,0,D1
94.528,0.452123876830231,95.1,1.1999999999999886,-0.01058,0.023583121082672666,-0.063,0.0054800000000000005,0.019517417862002135,0.055,0.031243811032887772,0.014773769733592039,0.0,0.43627999999999995,0,0,D1
94.36800000000001,0.4610596490693986,94.8,1.0999999999999943,-0.01026,0.02584322735263535,-0.066,0.010399999999999998,0.024610566836218952,0.074,0.037736918108089566,0.01845331980168722,0.0,0.47916,0,0,D1
94.148,0.40803921380180863,94.8,1.0999999999999943,-0.012340000000000002,0.02490751693766362,-0.091,0.012199999999999999,0.02285694642772739,0.074,0.03679996331092061,0.01884363819210338,0.0,0.3512399999999999,0,0,D1
94.09599999999999,0.14277254638059722,94.5,0.5999999999999943,-0.01618,0.022325492155829397,-0.091,0.0131,0.026509055056716,0.081,0.03743219912232181,0.01846484413329423,0.0,0.14287999999999998,0,0,D1
94.5,0.3435112807463537,95.0,1.0,-0.0169,0.015898742088605627,-0.052,0.01276,0.026282739583232184,0.081,0.03380541688986022,0.017988712819508628,0.0,0.062220000000000004,0,0,D1
94.61000000000001,0.6014149981501954,95.3,1.7000000000000028,-0.010620000000000001,0.01761123505038758,-0.052,0.0038599999999999997,0.020746093608195255,0.045,0.03192118452821005,0.017935383417032467,0.0,0.09724000000000001,0,0,D1
94.13799999999999,0.6298857039177814,95.3,1.7000000000000028,-0.007179999999999999,0.030975919679647933,-0.118,-0.00576,0.018088183988449476,0.045,0.036517498613557506,0.02439984211032575,0.0,0.1381,0,0,D1
93.73,0.19416487838947744,94.0,0.5,-0.01156,0.03286040778809661,-0.118,-0.003439999999999999,0.02185329265808702,0.055,0.03731657525595981,0.021518206504406643,0.0,0.16798,0,0,D1
93.712,0.2205810508633939,94.1,0.5999999999999943,-0.01614,0.02060583412531509,-0.053,0.00398,0.03035621188488445,0.062,0.03941707561622773,0.012283897991459609,0.0,0.13463999999999998,0,0,D1
94.182,0.5014738278315226,95.2,1.7000000000000028,-0.014500000000000002,0.01827484610058317,-0.053,-0.016139999999999998,0.037322920571680886,0.083,0.04396975905041142,0.017767393985859702,0.0,0.12725999999999998,0,0,D1
95.14599999999999,0.7012018254397263,96.0,1.9000000000000057,-0.00958,0.015146075399257723,-0.039,-0.0242,0.0297166619928955,0.083,0.037497096553996856,0.022518164890155623,0.0,0.2231,0,0,D1
95.76399999999998,0.22068982758614075,96.0,0.7999999999999972,-0.007740000000000001,0.0120113446374667,-0.042,0.0018,0.025956116812805415,0.082,0.027824181672112803,0.016193668956640494,0.0,0.22855999999999999,0,0,D1
96.10800000000003,0.47574783236500434,97.6,2.0,-0.008239999999999999,0.014750674560846362,-0.042,0.0009000000000000001,0.02164093343643014,0.044,0.026147802159790897,0.012435933507880881,0.0,0.23874000000000004,0,0,D1
97.16199999999999,0.8069423771249098,98.0,2.0999999999999943,-0.006560000000000002,0.016389215966604382,-0.039,0.00228,0.018351065364168914,0.044,0.024573032893256245,0.010919068386403063,0.0,0.22649999999999998,0,0,D1
98.54599999999999,0.7769710419314242,99.7,2.1000000000000085,-0.009340000000000001,0.0161562495647969,-0.041,0.00748,0.013383930663299178,0.037,0.023312146972277712,0.00983990871618853,0.0,0.09414,0,0,D1
99.456,0.4708120644163663,99.8,1.7999999999999972,-0.00924,0.015549353684317558,-0.041,0.00842,0.015855711904547206,0.037,0.024503001537613395,0.00978278670153426,0.0,0.04116,0,0,D1
99.18800000000002,0.6420716470924421,99.8,1.7000000000000028,-0.00542,0.01468072205308717,-0.033,0.01888,0.014673295471706416,0.051,0.027980216828021195,0.010370509450211186,0.0,0.11376000000000001,0,0,D1
98.33199999999997,0.5984780697736519,99.6,2.1999999999999886,-0.01122,0.021042138674573933,-0.069,0.021339999999999998,0.017189077927567843,0.052,0.03520872746814483,0.014824490212951806,0.0,0.22271999999999997,0,0,D1
97.82,0.4586937976471873,98.5,1.2999999999999972,-0.011619999999999998,0.02200989777350181,-0.069,0.02044,0.017960133629792402,0.052,0.03547931221650083,0.01472475482458213,0.0,0.26878,0,0,D1
97.90199999999999,0.3977386076306896,98.4,1.2000000000000028,-0.00934,0.015892904076977247,-0.056,0.00822,0.017137432713215828,0.043,0.025037337696899916,0.011171916623900935,0.0,0.2827,0,0,D1
98.58799999999998,0.4769234739452456,99.4,1.5,-0.00796,0.017740304394231795,-0.045,-0.0005200000000000001,0.011898302399922435,0.032,0.021270934244115795,0.010380142406658107,0.0,0.30585999999999997,0,0,D1
99.54799999999999,0.6122875141630757,100.4,2.0,-0.0036600000000000005,0.016813815747771237,-0.045,-0.007400000000000001,0.017187204542915058,0.05,0.02433916189822785,0.012893610746872028,0.0,0.37964,0,0,D1
100.06,0.5180733538795456,100.5,1.7000000000000028,-0.00158,0.025858143784889126,-0.082,-0.0011200000000000001,0.023955492063407923,0.05,0.038996568205388125,0.021271287412907375,0.0,0.28863999999999995,0,0,D1
98.38799999999998,1.8268705482326872,100.5,4.299999999999997,-0.00322,0.0327470853664872,-0.082,-0.000579999999999999,0.025378802178195884,0.051,0.04599127508395607,0.020128154812398533,0.0,0.13644,0,0,D1
96.3,0.8099382692526628,98.8,3.5,-0.014340000000000002,0.026348897510142622,-0.061,-0.021599999999999998,0.01945559045621592,0.066,0.04113768783087642,0.016478186791311772,0.0,0.11637999999999998,0,0,D1
95.14000000000001,0.8163332652783439,96.2,2.1000000000000085,-0.018659999999999996,0.02392873586297446,-0.067,-0.025580000000000002,0.019728243713012062,0.067,0.043332221299965105,0.016280006056843172,0.0,0.06474,0,0,D1
94.46799999999999,0.4037028610252841,95.3,1.2000000000000028,-0.01324,0.021735280076410332,-0.067,-0.01988,0.01869506886855462,0.067,0.035782712171469264,0.016743282523262435,0.0,0.06376,0,0,D1
94.83999999999997,0.6916646586316229,96.2,2.0,-0.012580000000000001,0.012182101624924987,-0.045,-0.008060000000000001,0.014541540496109758,0.036,0.023841948700307865,0.009865165085891268,0.0,0.12216,0,0,D1
96.152,1.268422642497366,98.3,4.099999999999994,-0.009460000000000001,0.021434747490931633,-0.056,0.008259999999999998,0.022478265057606205,0.078,0.029370030483633847,0.01816263497927596,0.0,0.14182,0,0,D1
98.07400000000001,1.180476175109011,99.8,3.5999999999999943,-0.01148,0.030984021688605885,-0.079,0.01422,0.024183705257879738,0.078,0.042828907895236884,0.020398153065935044,0.0,0.11608,0,0,D1
99.20200000000001,0.8083291408826007,100.2,2.1000000000000085,-0.020019999999999996,0.03266220445713975,-0.079,0.01694,0.019454983937284554,0.048,0.04709541018873221,0.017711079559277514,0.0,0.22828000000000004,0,0,D1
98.77000000000002,0.9855455342093544,100.2,2.700000000000003,-0.021920000000000002,0.024672121919283717,-0.079,0.01054,0.022590449309387365,0.052,0.042202742909162,0.015958336095695472,0.0,0.47006,0,0,D1
97.66799999999999,1.188181804270707,99.1,3.6999999999999886,-0.020659999999999998,0.036483207095868095,-0.108,0.00972,0.021374788887846358,0.052,0.05175188245481002,0.02252426829851585,0.0,0.5535,0,0,D1
95.82599999999998,1.7168354609571626,99.1,4.8999999999999915,-0.016019999999999996,0.04230625958413246,-0.108,0.0302,0.019,0.068,0.0603656157295074,0.01881043427455751,0.0,0.51948,0,0,D1
94.11200000000001,0.5210143951946071,95.4,2.3000000000000114,-0.015680000000000003,0.028975465483750212,-0.073,0.0070999999999999995,0.038594429649886006,0.068,0.05155579383788231,0.01641645886742256,0.0,0.41,0,0,D1
93.21999999999997,0.6596969000988251,94.2,1.7999999999999972,-0.01872,0.019795999595877953,-0.073,-0.019680000000000003,0.022256181163892424,0.061,0.040202910569142596,0.016798392237637582,0.0,0.20462000000000002,0,0,D1
92.686,0.1811187455786944,93.1,0.6999999999999886,-0.014680000000000002,0.016067905899649775,-0.048,-0.00842,0.01865592667224011,0.056,0.027900554278504207,0.012694844266561147,0.0,0.17830000000000001,0,0,D1
92.57,0.20024984394500844,92.9,0.6000000000000085,-0.01238,0.016034824601472885,-0.047,-0.00684,0.022618010522590177,0.056,0.029390614462205256,0.012512864641400513,0.0,0.27182,0,0,D1
92.82000000000002,0.46647615158762173,93.6,1.2999999999999972,-0.01272,0.011886193671651156,-0.047,-0.017700000000000004,0.025106373692749817,0.058,0.034848380693038035,0.012206160865443873,0.0,0.3014,0,0,D1
93.77000000000002,0.7576938695805852,95.1,2.299999999999997,-0.011200000000000002,0.016126996000495566,-0.037,-0.03236,0.02989164431743426,0.102,0.04237616935498648,0.024977595376607084,0.0,0.22293999999999997,0,0,D1
95.26,1.1876026271442846,97.2,3.6000000000000085,-0.011580000000000002,0.031051627976645603,-0.085,-0.04988000000000001,0.0334488505034179,0.102,0.06154255574511849,0.0311620575758242,0.0,0.11458000000000002,0,0,D1
96.62200000000001,0.7681900806441081,97.3,2.200000000000003,-0.01326,0.030784937875526074,-0.085,-0.03248,0.035159203631481756,0.101,0.05137207879246974,0.030437304751575505,0.0,0.07472000000000001,0,0,D1
97.09,0.20808652046684706,97.3,0.5,-0.01208,0.02324034423152979,-0.077,-0.008759999999999999,0.016491888915463868,0.046,0.030848017685337372,0.015019314394642418,0.0,0.08425999999999999,0,0,D1
96.93400000000001,0.2542518436511321,97.3,0.7000000000000028,-0.016120000000000002,0.024528872782906275,-0.089,-0.00884,0.015228079327347883,0.046,0.03490515249942157,0.018117128055851573,0.0,0.15350000000000003,0,0,D1
95.88600000000002,1.0067790224274642,97.0,2.9000000000000057,-0.015399999999999999,0.025754999514657345,-0.089,0.00246,0.013447988697199294,0.032,0.034917418960446325,0.017355513623648934,0.0,0.15403999999999998,0,0,D1
94.39200000000001,0.8917039867579392,96.6,3.5,-0.017540000000000004,0.024735569530536385,-0.062,0.0024000000000000007,0.015880806024884255,0.039,0.03301122563100575,0.013926915751121255,0.0,0.06804,0,0,D1
93.77000000000004,0.4733920151417856,94.3,1.2000000000000028,-0.020300000000000002,0.016501212076693035,-0.062,0.003580000000000001,0.01651918884207091,0.039,0.03458026763352073,0.016160603033119735,0.0,0.0164,0,0,D1
92.584,1.3987651697121968,94.3,3.5,-0.01574,0.013809866038452363,-0.047,0.00582,0.01260585578213554,0.035,0.0296626578853855,0.01627534107705819,0.0,0.02144,0,0,D1
90.70000000000002,1.025670512396645,93.1,4.0,-0.016700000000000003,0.014523429347092925,-0.047,-0.0014399999999999999,0.01759336238471771,0.047,0.026149682157042275,0.013517918592951528,0.0,0.02262,0,0,D1
89.40400000000001,0.7031244555553492,90.8,2.200000000000003,-0.014460000000000002,0.011567558082845316,-0.043,0.0111,0.02299499945640356,0.047,0.030328093137868127,0.012187155805223646,0.0,0.03578,0,0,D1
88.49,0.3534119409414443,89.1,1.0999999999999943,-0.012260000000000002,0.01327525517645518,-0.041,0.01908,0.013830169919418924,0.046,0.03046591325896513,0.009841144714778488,0.0,0.0553,0,0,D1
88.21199999999999,0.1595493654014334,88.9,0.9000000000000057,-0.013340000000000001,0.018132412966839245,-0.05,0.0002800000000000004,0.019356693932590867,0.036,0.031225898363945542,0.011157207148948295,0.0,0.04314,0,0,D1
88.88400000000001,0.7319453531514506,90.0,1.9000000000000057,-0.015960000000000002,0.017432108306226185,-0.05,-0.019000000000000003,0.02039313610016861,0.07,0.03565962251543068,0.015661779019542747,0.0,0.17049999999999998,0,0,D1
90.26600000000002,0.9063354787273861,92.1,3.1999999999999886,-0.016620000000000003,0.019406071214957448,-0.055,-0.0002000000000000003,0.03381656398867277,0.075,0.03931460553789388,0.018609723033935894,0.0,0.33230000000000004,0,0,D1
91.87400000000001,1.0027581961769223,93.1,3.0999999999999943,-0.01234,0.017903753796341144,-0.055,0.024760000000000004,0.019897296298743705,0.075,0.035412827029541565,0.016882288996927234,0.0,0.27277999999999997,0,0,D1
93.29599999999999,0.6846780265204985,94.2,2.1000000000000085,-0.008140000000000001,0.011767769542270958,-0.033,0.02398,0.020334689572255583,0.079,0.031709709172880345,0.014877981858146903,0.0,0.2945,0,0,D1
94.05599999999998,0.35953303047147356,94.4,1.3000000000000114,-0.008640000000000002,0.014773977121953318,-0.033,0.02982,0.02274703497161773,0.079,0.03899310803335374,0.015429761044786256,0.0,0.4347,0,0,D1
94.656,0.5814327132179586,96.0,2.0999999999999943,-0.013920000000000002,0.01825030410705531,-0.054,0.02874,0.02979450284867999,0.09,0.045098901560884225,0.01632755578773731,0.0,0.55744,0,0,D1
95.87200000000001,0.958757529305506,97.1,2.6999999999999886,-0.01864,0.018160132158109424,-0.054,0.005579999999999998,0.03167591514068694,0.09,0.03868776992486639,0.016989892826048177,0.0,0.3305199999999999,0,0,D1
97.36599999999999,0.7551450191850563,98.4,2.4000000000000057,-0.01938,0.020924521499905317,-0.073,-0.01958,0.02094477500475954,0.073,0.03867886068479047,0.01786968763371564,0.0,0.08698,0,0,D1
98.1,0.5403702434442553,98.9,1.6000000000000085,-0.01734,0.019816770675364845,-0.073,-0.01466,0.022020544952384806,0.073,0.04183616645265075,0.02235923023151958,0.0,0.21789999999999998,0,0,D1
97.25000000000001,1.05569882068704,98.9,2.8000000000000114,-0.015480000000000002,0.020194296224429316,-0.054,-0.0020800000000000003,0.014401166619409692,0.043,0.03535385435287921,0.019938530096158143,0.0,0.25652,0,0,D1
96.16799999999999,0.24284974778656587,96.6,0.6999999999999886,-0.016,0.03496283741345945,-0.128,-0.00438,0.01659263692123708,0.043,0.03691423728532273,0.02285517634241506,0.0,0.25823999999999997,0,0,D1
96.41399999999997,0.4862139446786772,97.2,1.2999999999999972,-0.01416,0.03615320732659828,-0.128,-0.051699999999999996,0.05473947387397873,0.15,0.0732069245601836,0.044540612888010284,0.0,0.26022,0,0,D1
96.78,0.28495613697550015,97.2,0.7999999999999972,-0.01058,0.02392662951608521,-0.056,-0.09012,0.037050581641858205,0.15,0.09560523104028382,0.034571661772815405,0.0,0.29100000000000004,0,0,D1
96.84600000000002,0.316992113466565,97.3,0.7999999999999972,-0.0071600000000000006,0.02139659786040762,-0.05,-0.09335999999999998,0.03190784229621301,0.159,0.09641411041010813,0.03202810193919529,0.0,0.26292000000000004,0,0,D1
97.36000000000001,0.5837807807730581,98.3,1.7999999999999972,-0.009500000000000001,0.02938928376126237,-0.086,-0.007820000000000004,0.1039732061638959,0.159,0.10518313693697263,0.029810530087505345,0.0,0.2023,0,0,D1
97.92,0.49638694583963533,98.5,1.4000000000000057,0.0054,0.042639887429494934,-0.086,0.05716000000000001,0.06495178519486589,0.138,0.09202211441392605,0.03530992011871881,0.0,0.23616,0,0,D1
98.22200000000001,0.5052880366681968,99.2,1.7000000000000028,0.0041400000000000005,0.04116163747957556,-0.072,0.009040000000000001,0.053702126587314956,0.127,0.06335249123109017,0.03238212245691506,0.0,0.14514000000000002,0,0,D1
99.08000000000001,0.9325234581499802,100.6,2.799999999999997,-0.013959999999999998,0.026524675304327477,-0.072,-0.00928,0.025986180942955045,0.051,0.039110594615061375,0.017970013602007433,0.0,0.10894000000000002,0,0,D1
100.86200000000001,1.20994049440458,102.8,3.5999999999999943,-0.014379999999999999,0.025060638459544482,-0.061,0.0032400000000000007,0.022684408742570304,0.065,0.03993322714997356,0.017326204702375357,0.0,0.11532,0,0,D1
102.166,0.4523759498470269,103.0,1.4000000000000057,-0.011460000000000001,0.036065612430679725,-0.111,0.007039999999999999,0.025673301306999848,0.07,0.04838946946728277,0.02061890503093967,0.0,0.05396000000000001,0,0,D1
102.884,0.5364177476556865,103.6,1.2999999999999972,-0.01266,0.05589368837355431,-0.119,0.00208,0.024025686254506864,0.07,0.05875017571553535,0.03038185072364289,0.0,0.08289999999999999,0,0,D1
102.85600000000001,0.7294271725127865,103.6,3.799999999999997,-0.02114,0.04935707041549366,-0.119,0.01494,0.021105838054907934,0.065,0.05945946693593159,0.026137172603303102,0.0,0.09926000000000001,0,0,D1
101.008,1.434968989211961,103.5,4.099999999999994,-0.0176,0.0262,-0.076,0.03944,0.02558215002692307,0.085,0.058118332358157866,0.014064830034760455,0.0,0.10819999999999999,0,0,D1
99.662,0.4413116812412728,100.1,2.299999999999997,-0.011740000000000002,0.04076754100997508,-0.123,0.05229999999999999,0.016171889190815032,0.085,0.06732440611011381,0.02012074406975227,0.0,0.12029999999999999,0,0,D1
98.59800000000003,1.164558285359733,100.1,3.0,-0.00974,0.04158307828913103,-0.123,0.03594,0.021644777661135723,0.073,0.05415356235443423,0.028029478845037484,0.0,0.2753,0,0,D1
97.17800000000003,0.42955325630240565,97.8,1.0999999999999943,-0.01084,0.025029071097425887,-0.063,0.01008,0.0236193480011621,0.061,0.03366159183130122,0.0180963320974963,0.0,0.48960000000000004,0,0,D1
96.15599999999999,0.9455495756437082,97.1,2.3999999999999915,-0.01016,0.025987966446030363,-0.059,-0.005619999999999999,0.021001799922863752,0.058,0.03530525480783715,0.015693915475549484,0.0,0.52676,0,0,D1
94.54599999999999,1.2382584544431723,97.1,4.699999999999989,-0.010699999999999998,0.0248276056034407,-0.056,-0.014020000000000001,0.02347636258026358,0.058,0.03955794800546888,0.014718992818689084,0.0,0.5693199999999999,0,0,D1
92.68,1.0476640682967018,94.1,2.5999999999999943,-0.01322,0.01783624399922809,-0.048,-0.019700000000000002,0.020011246837716035,0.057,0.03537810721295462,0.013640730553335055,0.0,0.4965000000000001,0,0,D1
91.42999999999998,0.5496362433464511,92.4,2.0,-0.011739999999999999,0.019619184488658035,-0.047,-0.01176,0.021746319228779842,0.057,0.03344182679875514,0.012957014330549412,0.0,0.43396,0,0,D1
90.20200000000001,1.0580151227652679,91.7,4.0,-0.01228,0.019606162296584205,-0.048,-0.00574,0.01862880565146354,0.048,0.030907489490414827,0.013109809052762619,0.0,0.4473,0,0,D1
88.67,0.779037868142493,90.4,2.700000000000003,-0.01262,0.019714857341609146,-0.062,-0.00926,0.0197401215801727,0.057,0.03342629812988904,0.015576989225513916,0.0,0.33542,0,0,D1
88.67199999999998,0.8087125570930633,90.0,2.299999999999997,-0.0113,0.021867098572970305,-0.062,-0.016200000000000003,0.020752831132161222,0.058,0.03543387992846548,0.017547083894912312,0.0,0.24664000000000003,0,0,D1
89.664,0.6504644494513127,90.5,2.200000000000003,-0.0093,0.01854103556978412,-0.049,-0.006299999999999999,0.021311264626952573,0.058,0.02966438669487591,0.014055751919298701,0.0,0.22804000000000002,0,0,D1
89.01000000000002,1.122007130102124,90.5,3.4000000000000057,-0.009559999999999999,0.015824234578645503,-0.05,0.00756,0.02142256753986319,0.063,0.02917045832078783,0.012065834465762405,0.0,0.30622,0,0,D1
87.38799999999999,0.7511697544496829,88.6,2.0999999999999943,-0.0103,0.014513786549346796,-0.05,0.008199999999999999,0.022234207878851903,0.063,0.028016109367569212,0.012998369740255922,0.0,0.37698,0,0,D1
87.02799999999999,0.38731898998112707,87.7,1.2000000000000028,-0.00908,0.009288358304888975,-0.029,0.005939999999999998,0.02300644257593946,0.052,0.026586258912480867,0.011941977936612166,0.0,0.38683999999999996,0,0,D1
87.296,0.35437832890852733,88.5,1.5,-0.007960000000000002,0.015397350421419913,-0.039,-0.0016800000000000003,0.022933329457364014,0.052,0.029737115056139577,0.011581191136403744,0.0,0.38968,0,0,D1
88.36000000000001,1.1747340124470707,90.1,3.0999999999999943,-0.00714,0.016095974652067517,-0.039,-0.00029999999999999987,0.01862605701698564,0.069,0.026509024137023093,0.012202116181332118,0.0,0.33042,0,0,D1
89.66599999999998,0.6860349845306717,90.3,2.0,-0.006120000000000001,0.011724572486875588,-0.029,0.0016200000000000003,0.01634,0.069,0.022476728933287626,0.011882619932469059,0.0,0.3169199999999999,0,0,D1
90.40000000000002,1.599999999999999,93.6,5.299999999999997,-0.0075000000000000015,0.014031749712705112,-0.036,-0.00392,0.016062179179675465,0.035,0.030953639714212076,0.011511393853167953,0.0,0.40367999999999993,0,0,D1
93.23399999999998,2.810737269827973,95.9,7.6000000000000085,-0.006900000000000001,0.015050913593533118,-0.045,-0.0016400000000000004,0.01803525436471579,0.044,0.04029868698739765,0.01110836743593527,0.0,0.42172000000000004,0,0,D1
95.57600000000001,0.5413169127230386,96.2,2.6000000000000085,-0.002739999999999999,0.018672771620731613,-0.045,0.00798,0.022283168535915172,0.055,0.03978460089830686,0.015416404618536755,0.0,0.37973999999999997,0,0,D1
94.02799999999999,1.8348885524739664,96.2,4.900000000000006,-0.00612,0.01781307385040549,-0.045,0.014780000000000001,0.0243616830288878,0.055,0.039326075828317986,0.016721834825920986,0.0,0.37859999999999994,0,0,D1
92.116,1.0547720132805953,96.2,4.900000000000006,-0.01006,0.009950698467946861,-0.026,0.020019999999999996,0.019433465980107617,0.055,0.03438678191579717,0.016420999649089718,0.0,0.41700000000000004,0,0,D1
91.37800000000001,0.42955325630240565,92.0,1.0999999999999943,-0.00946,0.014160805061860007,-0.034,0.01732,0.016410289455094935,0.055,0.02693443649274928,0.012493843716729288,0.0,0.35508,0,0,D1
91.10400000000001,0.14416657032751878,91.3,0.3999999999999915,-0.011360000000000002,0.01674247293562095,-0.05,0.0074199999999999995,0.01847061449979399,0.046,0.0265608750824744,0.012815612152885656,0.0,0.19459999999999997,0,0,D1
91.38799999999999,0.3963029144480288,92.4,1.3000000000000114,-0.01024,0.015801974560161778,-0.05,0.006040000000000001,0.019003115534038096,0.059,0.026280491268076422,0.01268919929343688,0.0,0.08488000000000001,0,0,D1
92.182,0.7021937054687993,93.0,1.9000000000000057,-0.008480000000000001,0.013869736839608746,-0.032,0.004660000000000001,0.014692324526772474,0.059,0.022792676678002152,0.009561061125840405,0.0,0.08825999999999999,0,0,D1
93.488,0.8228341266622338,94.9,2.5,-0.01088,0.01703248660648233,-0.053,-0.0030399999999999993,0.01388950683069777,0.037,0.023973550607389295,0.011057525549368832,0.0,0.21598000000000003,0,0,D1
95.03,0.9662815324738427,96.5,3.5,-0.01106,0.016624572174946336,-0.053,0.005,0.022315017364994368,0.062,0.02796331897223241,0.013615902175661627,0.0,0.26084,0,0,D1
96.17400000000002,0.4502488200983965,96.6,1.6999999999999886,-0.009420000000000001,0.010890527994546453,-0.031,0.005840000000000001,0.021197509287649813,0.062,0.024237641365553828,0.012312462833844174,0.0,0.25468,0,0,D1
96.64400000000002,0.18347751905887266,97.1,0.6999999999999886,-0.01194,0.015757423647284476,-0.062,-0.0013200000000000004,0.014626605894738534,0.036,0.023035677902726204,0.01161798362719847,0.0,0.30773999999999996,0,0,D1
97.184,0.46748689821213235,98.0,1.4000000000000057,-0.01372,0.01761935299606657,-0.062,0.0019399999999999999,0.01566960114361562,0.038,0.024094479410395178,0.014256790029387501,0.0,0.33126,0,0,D1
98.258,0.7992721689136955,99.7,2.6000000000000085,-0.011700000000000002,0.017959120245713597,-0.06,-0.004259999999999999,0.015924584766957035,0.038,0.02312786440617871,0.01485469245758429,0.0,0.36196000000000006,0,0,D1
99.34200000000001,0.5040198408793052,99.8,1.7999999999999972,-0.00964,0.025434433353232,-0.065,-0.00444,0.015982690637061082,0.031,0.02916515181877839,0.015516891421531825,0.0,0.38018,0,0,D1
99.30799999999999,0.47658787227540994,99.8,1.2000000000000028,-0.011000000000000001,0.02480080643850115,-0.065,-0.0016999999999999995,0.01656532523073423,0.031,0.030101784309232393,0.014036473253650678,0.0,0.31695999999999996,0,0,D1
98.58,0.40938978980917334,99.8,1.7000000000000028,-0.00964,0.018129269152395527,-0.057,-0.0013599999999999999,0.01772315998912158,0.047,0.025543875521279107,0.011976244125492684,0.0,0.2569,0,0,D1
97.95400000000001,0.4400954441936415,98.8,1.5,-0.00788,0.016333572787360393,-0.047,0.004280000000000001,0.018935722853907638,0.047,0.026257682907855885,0.013005156220149503,0.0,0.28664,0,0,D1
96.296,1.585680926290029,98.2,4.1000000000000085,-0.01344,0.01640141457313972,-0.055,0.00824,0.02222301509696648,0.057,0.03038595061431681,0.015373809068161982,0.0,0.30868,0,0,D1
94.492,0.9690902950705885,97.3,3.700000000000003,-0.015140000000000002,0.022107021509013825,-0.071,0.01502,0.024216102081053424,0.057,0.03701869234352039,0.014983871902008,0.0,0.24482000000000004,0,0,D1
93.79199999999997,0.33813606728652945,94.2,1.5,-0.010620000000000003,0.024014903705824014,-0.071,0.0159,0.018820467581864165,0.055,0.0332823015818982,0.0155199356123528,0.0,0.30006,0,0,D1
93.304,0.4975781345678277,93.7,1.2000000000000028,-0.012060000000000001,0.022923708251502417,-0.097,-0.00047999999999999996,0.019179405621655744,0.045,0.026814858566095084,0.018407698391714182,0.0,0.36980000000000013,0,0,D1
92.36,0.8163332652783452,93.7,2.5,-0.0165,0.02150837046361253,-0.097,-0.0053,0.017480560631741762,0.045,0.027877163961841468,0.017632462376100718,0.0,0.23912,0,0,D1
91.33200000000001,0.47050611048104396,92.5,1.9000000000000057,-0.012660000000000003,0.019758147686460895,-0.054,0.00218,0.01400955388297572,0.038,0.02744567791199166,0.011340844939915764,0.0,0.21678000000000006,0,0,D1
91.32,0.6046486583132424,92.4,1.8000000000000114,-0.011420000000000001,0.02139260619933906,-0.047,-0.0011200000000000001,0.01425572165833775,0.052,0.029734924306254372,0.011321407885122908,0.0,0.33449999999999996,0,0,D1
91.77599999999998,0.49982396901309356,92.4,1.4000000000000057,-0.013120000000000003,0.020869729274717485,-0.047,-0.005299999999999999,0.015318289721767244,0.052,0.02902386607024533,0.012716729073801255,0.0,0.36328000000000005,0,0,D1
92.41400000000002,0.7090867365844588,93.6,1.8999999999999915,-0.012400000000000001,0.02430390915058728,-0.08,-0.00736,0.017736696422953176,0.051,0.02986162267368793,0.017798974445014708,0.0,0.3411599999999999,0,0,D1
93.12400000000001,0.515581225414577,93.6,1.8999999999999915,-0.012660000000000003,0.028554936525931905,-0.08,-0.00496,0.019331797640157525,0.051,0.034134850405571585,0.019542056897605468,0.0,0.32342,0,0,D1
93.008,0.4335158589947982,93.6,1.6999999999999886,-0.01056,0.023200137930624462,-0.064,-0.00434,0.02134817088183435,0.064,0.030887063466081752,0.017577522875599893,0.0,0.24047999999999997,0,0,D1
92.584,0.3700594546826205,93.1,1.1999999999999886,-0.010459999999999999,0.018714924525629274,-0.052,-0.01886,0.025194451770181467,0.086,0.03425472413144562,0.01859069322748769,0.0,0.18413999999999997,0,0,D1
92.13600000000002,0.5305695053430799,92.7,1.4000000000000057,-0.014420000000000002,0.018607622094184952,-0.052,-0.032959999999999996,0.023852010397448678,0.09,0.043134569013650106,0.02052045213943046,0.0,0.14344,0,0,D1
91.92,0.40447496832313407,92.6,1.2999999999999972,-0.014540000000000003,0.029132257035801398,-0.073,-0.036019999999999996,0.024984387124762534,0.09,0.05001421480926127,0.023345199014209974,0.0,0.057440000000000005,0,0,D1
92.706,0.9270188779091825,94.8,3.200000000000003,-0.01444,0.03096912010374205,-0.082,-0.026559999999999997,0.02336934744489028,0.078,0.045639797447050864,0.02254792427236195,0.0,0.14488,0,0,D1
93.63600000000001,0.7471974304024332,94.8,2.299999999999997,-0.0175,0.03452260129248664,-0.11,-0.01548,0.01984262079464303,0.056,0.04463561473930356,0.024163648251960365,0.0,0.30232,0,0,D1
93.90799999999999,0.4620995563728665,94.8,1.5,-0.02028,0.03562248727980684,-0.11,-0.011779999999999999,0.023631580564998186,0.072,0.04749608092488373,0.023757152539327954,0.0,0.29702,0,0,D1
93.868,0.49656419524569073,94.3,1.5999999999999943,-0.02048,0.024282701661882684,-0.085,0.0028799999999999997,0.02562782862436847,0.072,0.04284611110019367,0.0189697328286368,0.0,0.23873999999999998,0,0,D1
92.95799999999997,1.003013459530827,94.3,2.8999999999999915,-0.0195,0.02095924616965028,-0.058,0.013980000000000001,0.016737371358728947,0.056,0.038080964643979504,0.017103804599678477,0.0,0.18456,0,0,D1
91.24600000000001,0.9891835016820678,92.7,2.799999999999997,-0.02068,0.015800556952208996,-0.058,0.005980000000000001,0.02315900688717027,0.053,0.03448429789695995,0.013333911599891595,0.0,0.16635999999999998,0,0,D1
90.38,0.46000000000000085,91.4,1.5,-0.01864,0.015567607394843948,-0.05,0.0017999999999999997,0.022546840133375674,0.053,0.03326986645079195,0.01214149852145396,0.0,0.16252000000000003,0,0,D1
90.462,0.41515780132378916,90.9,1.1000000000000085,-0.016120000000000002,0.016707650942008573,-0.051,0.00434,0.020117266215865414,0.042,0.03391226711980215,0.00938499540730767,0.0,0.17592,0,0,D1
90.31199999999998,0.41116420077628474,90.9,1.5,-0.01418,0.01998868680028781,-0.055,0.01752,0.025843560126267436,0.061,0.039496144781412175,0.01658718021261383,0.0,0.22386000000000003,0,0,D1
89.42,0.7504665215717484,90.3,2.0999999999999943,-0.007699999999999998,0.02366791076542245,-0.062,0.03168,0.025441257830539746,0.086,0.04298464232733787,0.02406866269635341,0.0,0.26732,0,0,D1
88.24599999999998,0.6539755347105898,89.4,1.9000000000000057,-0.0054,0.018546158631910815,-0.062,0.02664,0.023814079868850698,0.086,0.036212941952251915,0.021750467469984033,0.0,0.2726,0,0,D1
87.884,0.28380274840106656,88.3,0.7999999999999972,-0.008740000000000001,0.014650337880062697,-0.047,0.01184,0.01662571502221784,0.063,0.02582708766340433,0.011030029139890244,0.0,0.25256,0,0,D1
88.37800000000003,0.37432071810146944,88.8,1.0999999999999943,-0.01006,0.014548415721307937,-0.047,0.0034400000000000003,0.011940117252355607,0.028,0.021303645953078904,0.009129877825352585,0.0,0.2636,0,0,D1
88.932,0.3367135280917598,89.5,1.2000000000000028,-0.009380000000000001,0.014100907772196795,-0.036,0.00356,0.008964730893897484,0.026,0.019784439998510827,0.008570643729926292,0.0,0.26186,0,0,D1
88.71,0.5088221693283415,89.5,1.2999999999999972,-0.00946,0.01395594496979692,-0.036,-0.00998,0.017247017133405994,0.043,0.02553831772275211,0.010856994422572272,0.0,0.26342000000000004,0,0,D1
88.38,0.17204650534085364,88.7,0.5,-0.0161,0.015006998367428444,-0.047,-0.009300000000000001,0.019314502323383845,0.043,0.030049584745423522,0.012555574723110459,0.0,0.17323999999999998,0,0,D1
88.01199999999997,0.654412713812926,88.7,1.7999999999999972,-0.014980000000000002,0.027554665666634393,-0.071,0.01094,0.016971045931232408,0.045,0.03750713147939698,0.018979860067640852,0.0,0.04791999999999999,0,0,D1
87.39200000000001,0.4840826375733779,88.3,1.3999999999999915,-0.01324,0.026397393810753362,-0.071,0.002200000000000001,0.022420526309611912,0.045,0.03792426752270088,0.017419814375205473,0.0,0.14012,0,0,D1
87.792,0.5966037210745483,88.6,1.6999999999999886,-0.01708,0.012454461048154593,-0.05,-0.00538,0.016683992327977137,0.045,0.028977852398750063,0.009556362820459206,0.0,0.3245,0,0,D1
87.79,0.7346427703312677,88.6,2.5,-0.014819999999999998,0.015901811217594052,-0.054,0.004999999999999999,0.014444376068214231,0.042,0.029067761230736115,0.010827984901767949,0.0,0.33764000000000005,0,0,D1
86.38599999999998,1.0436493664061701,88.3,3.3999999999999915,-0.014260000000000002,0.0162195067742518,-0.054,0.004520000000000001,0.013750985419234509,0.042,0.026785417152366903,0.01176781321969756,0.0,0.21896000000000002,0,0,D1
85.17400000000002,0.49509998990102827,86.1,1.5,-0.015600000000000001,0.013509996299037243,-0.046,-0.00528,0.0142492666477963,0.041,0.02500841512957636,0.010405727879719719,0.0,0.2077,0,0,D1
84.86200000000001,0.17191858538273413,85.0,0.4000000000000057,-0.014040000000000002,0.012677476089506142,-0.046,-0.00854,0.01630117787155272,0.044,0.025095367316807938,0.011027354135715772,0.0,0.26628,0,0,D1
84.8,0.2966479394838246,85.5,1.0999999999999943,-0.01094,0.011264830225085508,-0.039,-0.00524,0.014615827037838126,0.044,0.02213766572858536,0.009011312672936013,0.0,0.26102000000000003,0,0,D1
85.336,0.7160335187684981,86.3,1.8999999999999915,-0.01204,0.012596761488573164,-0.039,-0.007140000000000002,0.011673919650228883,0.031,0.021918714855238483,0.008862840351419403,0.0,0.24725999999999998,0,0,D1
87.10600000000001,1.1832852572393506,88.6,3.0999999999999943,-0.011359999999999999,0.013169297627436323,-0.041,-0.011359999999999999,0.014493805573416526,0.051,0.026160358931623114,0.012590298668762658,0.0,0.31294,0,0,D1
88.10400000000001,0.39087593939765514,88.6,1.7999999999999972,-0.00892,0.012708800100717612,-0.041,-0.0070999999999999995,0.016070158679988195,0.051,0.027173013180613506,0.012348577030824433,0.0,0.40572,0,0,D1
87.28999999999998,0.814677850441508,88.3,2.3999999999999915,-0.0074399999999999996,0.015254061754168954,-0.041,-0.0014000000000000002,0.013740451229854135,0.037,0.026253460378331032,0.011890997357808237,0.0,0.37404000000000004,0,0,D1
86.97799999999998,0.6827268853648557,88.2,2.299999999999997,-0.00528,0.015679336720665196,-0.041,0.0064600000000000005,0.01957775268001923,0.053,0.027259225222377937,0.014057547448814621,0.0,0.29316000000000003,0,0,D1
87.616,0.5489480849770746,88.2,2.299999999999997,-0.00838,0.014458063494119811,-0.042,0.0082,0.02195267637441959,0.054,0.026877754835883748,0.014592679499739847,0.0,0.28202,0,0,D1
88.17800000000003,0.4952938521726264,89.1,1.2999999999999972,-0.01148,0.015812956712771966,-0.051,-0.00314,0.020744165444770247,0.054,0.027525733299301778,0.013199015354779658,0.0,0.37754,0,0,D1
89.28200000000001,1.0939268714132577,91.1,3.299999999999997,-0.009099999999999999,0.015419792475905764,-0.051,-0.00768,0.01769682457391721,0.049,0.02728027702260586,0.012062606914339993,0.0,0.4799,0,0,D1
89.97200000000001,0.7255453121618224,91.1,2.0,-0.00686,0.012320730497823578,-0.034,0.00017999999999999985,0.0185749185731728,0.045,0.026313782442344714,0.01106276880247215,0.0,0.44662,0,0,D1
89.48200000000001,0.552698833000395,90.6,1.7999999999999972,-0.00752,0.011220053475808393,-0.031,0.003280000000000001,0.016542115946879345,0.035,0.02360807051739741,0.00918471591534496,0.0,0.34236,0,0,D1
89.28399999999999,0.37382348775859553,90.0,1.2000000000000028,-0.0106,0.015460918472070151,-0.047,-0.012880000000000003,0.02008944001210586,0.063,0.02859337666991297,0.01515977607395561,0.0,0.28216,0,0,D1
88.844,0.8244173700256424,90.0,2.299999999999997,-0.011360000000000002,0.01893542711427445,-0.047,-0.017,0.02009875618042072,0.063,0.03429051212871646,0.014948604548597467,0.0,0.28774,0,0,D1
87.786,0.7002885119720299,90.0,3.0,-0.008980000000000002,0.015974341926977775,-0.047,-0.005659999999999999,0.016442153143673126,0.041,0.026296574022146347,0.011807209437364016,0.0,0.2791,0,0,D1
87.054,0.3617789380270786,87.7,1.2000000000000028,-0.0102,0.010855413396089529,-0.031,-0.006140000000000001,0.011487401795010045,0.036,0.019578889634858754,0.007884610368687884,0.0,0.28722000000000003,0,0,D1
86.89800000000001,0.367961954555085,87.6,1.0999999999999943,-0.01,0.010620734437881403,-0.031,-0.012120000000000002,0.011204713293966963,0.036,0.020238776589265345,0.009912210760965748,0.0,0.33098000000000005,0,0,D1
87.44599999999998,0.5632796818632816,88.3,1.7999999999999972,-0.00224,0.011945810981260335,-0.036,-0.0059,0.01530914759220774,0.036,0.01877710763215025,0.010126214938003471,0.0,0.32958000000000004,0,0,D1
88.29800000000002,0.5201884273991493,89.8,2.200000000000003,0.00045999999999999985,0.01322453779910663,-0.036,0.00356,0.012570059665729515,0.034,0.017793041290384115,0.008653766904573175,0.0,0.29868,0,0,D1
89.69,1.0912836478203098,91.3,3.0,0.00017999999999999977,0.017618955701175935,-0.028,0.00434,0.015399493498164152,0.042,0.02735216363815833,0.014755986727813539,0.0,0.24280000000000002,0,0,D1
90.47200000000001,0.5848213402399058,91.3,1.7000000000000028,0.0019400000000000003,0.016561896026723512,-0.028,0.0027999999999999995,0.020674622124720925,0.056,0.03107208412598283,0.01454460683785732,0.0,0.24363999999999997,0,0,D1
90.23,0.43231932642434673,91.3,1.7000000000000028,0.00246,0.01667598272966244,-0.039,0.00017999999999999998,0.021064368018053618,0.056,0.031349903549445196,0.013086005786353746,0.0,0.24386000000000002,0,0,D1
91.662,1.8268979172356616,95.3,5.700000000000003,0.003640000000000001,0.016768732808414594,-0.039,0.024319999999999998,0.03312789760911489,0.103,0.04630621178451741,0.020771970300561778,0.0,0.35298,0,0,D1
94.788,2.049842920811251,97.7,7.299999999999997,0.0007799999999999999,0.012994291054151437,-0.022,0.01912,0.03893052272960126,0.103,0.04628024494745896,0.02037692144567474,0.0,0.36084000000000005,0,0,D1
96.814,0.9308082509303416,98.0,2.700000000000003,-0.00644,0.015226503209864042,-0.037,-0.00046000000000000066,0.02489996787146521,0.055,0.04164595179451968,0.01617450769354489,0.0,0.17920000000000003,0,0,D1
95.89599999999999,1.5751774503210756,98.0,4.200000000000003,-0.010579999999999999,0.017691907754676994,-0.045,0.010860000000000002,0.016190132797478843,0.046,0.040516569782318435,0.02209315670234837,0.0,0.08612,0,0,D1
93.648,1.2132996332316266,96.2,4.0,-0.011120000000000001,0.014868274950376724,-0.045,-5.9999999999999934e-05,0.016698993981674466,0.046,0.027760681217390677,0.018924179727174764,0.0,0.10591999999999999,0,0,D1
91.792,1.0699233617413928,93.8,3.5,-0.009100000000000002,0.02206830306117804,-0.066,-0.0008400000000000004,0.01637847367736078,0.039,0.027873056152976784,0.014787587385811206,0.0,0.26267999999999997,0,0,D1
91.60000000000004,0.9848857801796105,93.6,3.299999999999997,-0.0104,0.024418845181539604,-0.066,0.008100000000000001,0.014600342461736984,0.043,0.03259293885888241,0.013766638534557112,0.0,0.41514,0,0,D1
93.706,1.5781520839260064,96.9,5.0,-0.011360000000000002,0.025393510982138726,-0.089,0.0021,0.0184143965418365,0.043,0.03408559542812446,0.015795321595656768,0.0,0.5829000000000001,0,0,D1
95.09199999999998,1.1327559313462032,96.9,3.3000000000000114,-0.012,0.025438553417991363,-0.089,-0.0027800000000000004,0.020480517571584953,0.059,0.049757367380577004,0.02600508395207161,0.0,0.63278,0,0,D1
95.42999999999998,1.16365802536656,96.9,2.9000000000000057,-0.0159,0.01724905794529081,-0.049,-0.0106,0.027200735284179364,0.076,0.05327956061477743,0.02350975160856148,0.0,0.55338,0,0,D1
95.41399999999997,1.2000016666655082,96.5,3.5999999999999943,-0.015400000000000002,0.017649929178328166,-0.053,-0.017079999999999998,0.02401486206497968,0.076,0.05162350988277961,0.030421262751282308,0.0,0.52962,0,0,D1
94.17600000000002,1.4050708167206398,96.4,5.1000000000000085,-0.0151,0.016601505955786057,-0.053,-0.00824,0.017895876620048542,0.057,0.04519084383338367,0.03492230853804957,0.0,0.54632,0,0,D1
92.58800000000001,0.8787809738495707,93.6,2.299999999999997,-0.01694,0.014152611066513486,-0.051,-0.00584,0.018863043232734213,0.043,0.030753919512108027,0.01913834984116397,0.0,0.60094,0,0,D1
92.73200000000003,1.1467240295729397,96.6,5.299999999999997,-0.0166,0.013957077057894321,-0.047,-0.01056,0.016072535580921886,0.043,0.02899261680315804,0.0106914999371107,0.0,0.6294000000000001,0,0,D1
95.43000000000002,2.011491983578357,97.6,5.5,-0.02526,0.020695709700321946,-0.088,-0.009080000000000001,0.017997599839978663,0.048,0.03800853368876411,0.019433254149269066,0.0,0.54956,0,0,D1
96.90199999999999,0.5934610349466928,97.6,1.5,-0.03302,0.017459083595653006,-0.088,-0.00016000000000000015,0.022586155051269798,0.051,0.04973185078752355,0.01800397226301723,0.0,0.48847999999999997,0,0,D1
95.584,1.2606918735361123,97.6,4.099999999999994,-0.029580000000000002,0.03813611936209556,-0.186,-0.00246,0.02315531040603861,0.051,0.056022572469873466,0.0294705170273237,0.0,0.4779,0,0,D1
91.994,2.9729722501227642,96.3,9.0,-0.028319999999999998,0.03911901839259262,-0.186,-0.00766,0.020027590968461483,0.051,0.04825876845770881,0.03190628883065609,0.0,0.3791399999999999,0,0,D1
87.47400000000002,2.282175278106392,93.5,8.799999999999997,-0.01866,0.025071585510294318,-0.072,-0.00966,0.01587905538752227,0.04,0.03475569845743778,0.015330408498655787,0.0,0.28550000000000003,0,0,D1
84.73199999999999,1.1261332070408012,87.3,3.5999999999999943,-0.00986,0.02941292912989116,-0.072,-0.014440000000000001,0.015235694929999091,0.05,0.04037074692829469,0.015812109045019423,0.0,0.21514,0,0,D1
84.20000000000002,0.5099019513592769,85.1,1.3999999999999915,-0.006540000000000001,0.030942663104522854,-0.072,-0.009300000000000001,0.01921483801649132,0.05,0.04203948326385884,0.015510701045011874,0.0,0.14135999999999999,0,0,D1
85.22000000000001,0.808455317256308,86.2,2.5,-0.00806,0.03899867177225399,-0.104,-0.0134,0.025392124763398593,0.077,0.044725379395314305,0.024767729769706284,0.0,0.20884,0,0,D1
86.18,0.3969886648255858,86.7,1.2000000000000028,-0.013260000000000003,0.03769605284376601,-0.104,-0.00722,0.025622092030121193,0.077,0.04181255718453597,0.025276670304648703,0.0,0.34282,0,0,D1
87.892,1.6008547716766812,90.9,4.800000000000011,-0.011020000000000004,0.02253662796427185,-0.06,-0.00462,0.01873060596990925,0.037,0.030091085239687444,0.012179761454883458,0.0,0.36117999999999995,0,0,D1
90.60799999999998,1.5060995983001946,92.4,4.1000000000000085,-0.00772,0.01455340509983832,-0.042,-0.02222,0.01977097873146395,0.065,0.03858640284281081,0.014921444824557775,0.0,0.25066000000000005,0,0,D1
91.52400000000002,0.6028465808147232,92.4,1.8000000000000114,-0.010860000000000002,0.015854349560924914,-0.042,-0.01742,0.02368720329629482,0.065,0.042716217902682416,0.014271815865213318,0.0,0.12576,0,0,D1
89.65599999999999,1.8218847383959262,91.7,5.5,-0.01456,0.015646290295146643,-0.054,0.00011999999999999976,0.019538311083612116,0.054,0.03334397130207659,0.012108657142982145,0.0,0.15202,0,0,D1
86.74400000000001,1.7788940384407401,90.6,6.0,-0.016399999999999998,0.016930445948054648,-0.054,0.014500000000000002,0.020335437049643166,0.071,0.035580024773367934,0.01470516362120885,0.0,0.26116000000000006,0,0,D1
84.59000000000002,0.9765756499114643,86.2,3.1000000000000085,-0.019,0.019331839022710694,-0.072,0.030039999999999997,0.020049897755350272,0.078,0.044245852900899774,0.018029545226431486,0.0,0.22881999999999997,0,0,D1
83.722,0.5672001410437076,84.6,1.5,-0.01642,0.018730819522914634,-0.072,0.02588,0.022903833740227857,0.078,0.04120597048622934,0.018333248383415206,0.0,0.16152,0,0,D1
85.082,1.782659810507883,89.3,6.200000000000003,-0.016540000000000003,0.03677728103054928,-0.128,-0.0028399999999999996,0.03306197816223343,0.112,0.04683135720342543,0.029977391188780466,0.0,0.22159999999999996,0,0,D1
86.89800000000001,1.3167368757652378,89.3,5.099999999999994,-0.01472,0.04325923716387056,-0.128,-0.01176,0.0366445412032952,0.112,0.058432691888307506,0.03075321964747955,0.0,0.14026,0,0,D1
87.11400000000002,0.9734495364424398,89.3,3.200000000000003,-0.007499999999999999,0.03212366728753117,-0.093,0.005299999999999999,0.031044001030794986,0.097,0.04722216873517844,0.02228377840372533,0.0,0.12725999999999998,0,0,D1
87.38000000000002,0.6112282715974443,88.1,1.7999999999999972,-0.008400000000000001,0.025055139193387053,-0.062,0.022719999999999997,0.02484917704874751,0.084,0.04029564404221629,0.018819167654893745,0.0,0.39061999999999997,0,0,D1
87.99000000000002,0.5127377497317699,88.6,1.5,-0.00882,0.02201335049464302,-0.062,0.035840000000000004,0.02433052403874606,0.084,0.0477679406901347,0.019369662935213246,0.0,0.544,0,0,D1
87.34000000000002,1.0011992808627075,88.6,2.5,-0.007200000000000001,0.022157617200412143,-0.05,0.03758,0.016838159044266093,0.075,0.047262255237359,0.014347795296794991,0.0,0.64998,0,0,D1
86.3,0.42661458015403125,87.1,1.7999999999999972,-0.004960000000000001,0.034775830687418526,-0.125,0.02636,0.019628306090949368,0.061,0.04517204895997181,0.022546529505844348,0.0,0.6648400000000001,0,0,D1
86.07600000000001,0.7809122870079587,90.2,4.900000000000006,-0.0014800000000000002,0.0352665507244471,-0.125,8.000000000000041e-05,0.027036893312657056,0.057,0.04160153789012586,0.023823770591080293,0.0,0.64506,0,0,D1
88.55399999999997,2.684638523153536,91.7,6.400000000000006,-0.0021199999999999995,0.029253813426628673,-0.059,-0.00808,0.01955795490331236,0.057,0.03837283170155041,0.017077639977598993,0.0,0.7652000000000001,0,0,D1
91.43400000000001,0.5948478797137957,92.1,1.8999999999999915,-0.0018400000000000003,0.027826145978198276,-0.059,0.0029400000000000003,0.01219083262127735,0.029,0.03709959588735412,0.020100745881559155,0.0,0.77382,0,0,D1
92.78,1.3789851340750559,95.5,4.0,-0.009960000000000002,0.01969665961527487,-0.055,-0.00208,0.012547254679809444,0.027,0.034346327672905595,0.01818652730417216,0.0,0.72636,0,0,D1
95.126,1.640220716854903,96.7,4.6000000000000085,-0.0213,0.019937151250868316,-0.081,-0.013099999999999999,0.012223338332877807,0.036,0.03987523979578049,0.0192718772108221,0.0,0.7181799999999998,0,0,D1
96.20200000000001,0.7259449014904665,96.7,1.9000000000000057,-0.016579999999999998,0.02583957429989898,-0.081,-0.01668,0.015549199336300246,0.049,0.04485775279831765,0.019205780741355587,0.0,0.5419,0,0,D1
96.62,0.9547774609824012,97.5,2.700000000000003,-0.013300000000000001,0.024703238654071247,-0.078,-0.02194,0.016614945079656447,0.054,0.04655663749941329,0.016341955352656673,0.0,0.45809999999999995,0,0,D1
98.74,2.0372530525194965,102.5,5.400000000000006,-0.0202,0.022822795621921518,-0.078,-0.00826,0.03634876063911946,0.065,0.05083783176452102,0.01689896036690592,0.0,0.4292999999999999,0,0,D1
103.76999999999998,4.189045237282598,110.4,13.100000000000009,-0.0198,0.024102282049631732,-0.063,0.017419999999999998,0.033788808798180504,0.065,0.04870742876959944,0.016369067861500157,0.0,0.26328,0,0,D1
109.58,2.8308302669005063,113.3,8.599999999999994,-0.01262,0.03207110225732816,-0.083,0.00738,0.024723179407187906,0.061,0.041293151328586505,0.01953549726406919,0.0,0.20461999999999997,0,0,D1
112.60600000000002,1.079890735213521,113.7,3.299999999999997,-0.00768,0.030307385238585,-0.083,-0.0025800000000000003,0.016079912935087676,0.049,0.036483471668122144,0.017700177825132973,0.0,0.16728,0,0,D1
112.71199999999999,0.8794634728060055,113.7,3.799999999999997,-0.01316,0.023657015872675068,-0.082,-0.00042000000000000023,0.020887402902227934,0.038,0.03614237198811077,0.013509587228077179,0.0,0.38702000000000003,0,0,D1
83.64,2.66353149033384,85.7,6.900000000000006,-0.006919999999999999,0.03438653224737848,-0.107,-0.00922,0.01844699433512137,0.047,0.0646760694895172,0.03404300273752509,0.0,0.21233999999999997,1,0,D1
85.55,0.22472205054244154,86.0,0.7999999999999972,-0.0020199999999999992,0.02694549312964972,-0.06,-0.006140000000000001,0.01863653401252497,0.047,0.04515353592773783,0.021234834428892763,0.0,0.5800799999999999,1,0,D1
86.192,0.7714505816965862,87.2,2.0,-0.003399999999999999,0.02567489045740994,-0.059,-0.0023799999999999997,0.017305363330482257,0.044,0.03439394478701758,0.012888621415325475,0.0,0.69178,1,0,D1
86.74399999999997,0.35336100520572483,87.2,1.2000000000000028,-0.009380000000000001,0.023515858478907376,-0.048,-0.007940000000000001,0.016412690212149864,0.044,0.03440486222795796,0.011655275847238957,0.0,0.5002400000000001,1,0,D1
85.70599999999999,1.0911296898169331,86.8,2.799999999999997,-0.01256,0.01398593579278841,-0.046,-0.01614,0.012740502344884209,0.043,0.030402965948817588,0.010660190500879348,0.0,0.40662,1,0,D1
84.55999999999999,0.7045565981523432,86.4,2.5,-0.01152,0.014242527865516007,-0.044,-0.00582,0.02741145016229532,0.074,0.03451281411653437,0.013852280020182456,0.0,0.44488,1,0,D1
84.42,0.6343500610861491,86.2,2.299999999999997,-0.01638,0.02205437825013437,-0.079,-0.003280000000000001,0.027054788855210087,0.074,0.043822054360199696,0.01783444845381272,0.0,0.33392000000000005,1,0,D1
86.92000000000002,2.8885290374167942,91.6,7.699999999999989,-0.01156,0.024864561126229437,-0.079,0.0104,0.03480919418774298,0.085,0.048325301780914154,0.021665299623674136,0.0,0.2661,1,0,D1
92.09600000000002,3.208797905758476,96.1,9.899999999999991,-0.0041,0.01897182120936206,-0.052,0.012979999999999998,0.035016847373799946,0.085,0.03871970644394928,0.02173118342139684,0.0,0.24065999999999996,1,0,D1
96.02,1.4246403054806518,98.0,4.200000000000003,-0.00316,0.016489220721428895,-0.048,-0.01044,0.019235550421030326,0.053,0.026815081446088743,0.012522436146358546,0.0,0.17534000000000002,1,0,D1
98.81400000000002,1.9858509511038338,102.5,6.400000000000006,-0.0048400000000000006,0.015158311251587363,-0.048,-0.0009600000000000001,0.018338985795294135,0.046,0.02339089424537802,0.0110564943088459,0.0,0.24386,1,0,D1
102.316,2.2060244785586587,105.0,6.200000000000003,-0.005639999999999999,0.014103559834311337,-0.042,0.0006399999999999998,0.01565855676619017,0.046,0.026754948125432398,0.012655147205995726,0.0,0.308,1,0,D1
104.39600000000002,0.7113255232311003,105.3,2.799999999999997,-0.00572,0.017333251281857077,-0.042,-0.006940000000000002,0.012968284389232062,0.032,0.030337242705721655,0.010657002628044084,0.0,0.27571999999999997,1,0,D1
105.568,1.0872791729818063,107.0,2.799999999999997,-0.00504,0.019491495581406778,-0.047,0.005620000000000001,0.01727760400055517,0.033,0.028871309498499694,0.009675096270417217,0.0,0.24714000000000003,1,0,D1
106.56800000000001,0.46365504418694814,107.0,1.7000000000000028,-0.004719999999999999,0.017691851231569862,-0.047,0.008060000000000001,0.03233104390520047,0.082,0.03903671743309253,0.017117087721014036,0.0,0.26449999999999996,1,0,D1
107.84,1.6230834852218785,112.0,5.700000000000003,-0.00198,0.01825759020243362,-0.032,0.01726,0.03659115193595304,0.082,0.04827050881839676,0.014692105989717095,0.0,0.4128,1,0,D1
110.88599999999998,2.234637330754143,114.5,7.900000000000006,-0.005679999999999998,0.03277708955962991,-0.074,0.01588,0.026294972903579877,0.06,0.04635808578086244,0.016518107722563118,0.0,0.33296,1,0,D1
114.09199999999998,1.65237283928295,116.7,4.700000000000003,-0.010879999999999999,0.0326776008911303,-0.074,-0.01114,0.018853127061577876,0.042,0.03873680168224265,0.018676193279964823,0.0,0.13968,1,0,D1
116.24400000000001,0.8897550224640508,117.5,3.0,-0.00756,0.01900648310445675,-0.038,-0.00286,0.02088062259608176,0.046,0.027652757029467928,0.013608270598030164,0.0,0.15576,1,0,D1
117.61200000000001,0.7084179557295238,119.0,2.299999999999997,-0.008479999999999998,0.018717093791505133,-0.067,-0.0031199999999999995,0.023204861559595655,0.054,0.028287521201620005,0.014651148223531795,0.0,0.42884,1,0,D1
118.58,0.5015974481593788,119.2,1.7000000000000028,-0.01244,0.01759336238471771,-0.067,-0.01432,0.022472596645692726,0.057,0.03380017699908978,0.014177024893474745,0.0,0.42161999999999994,1,0,D1
118.17200000000001,0.8590785761500538,119.2,2.4000000000000057,-0.0096,0.013908270920570967,-0.036,0.0005799999999999997,0.021549097428894787,0.057,0.02803835266223044,0.012133044959464856,0.0,0.08596,1,0,D1
116.94200000000001,0.584154089260701,118.5,2.200000000000003,-0.00868,0.017221428512176333,-0.044,0.00838,0.01805756351227928,0.048,0.026489434959203723,0.011851997111968748,0.0,0.028800000000000003,1,0,D1
116.484,0.2678507046845302,117.2,1.0,-0.01144,0.018623812713834943,-0.055,0.0025399999999999993,0.019151198395922903,0.048,0.027997727437770247,0.012223226182981613,0.0,0.031,1,0,D1
116.584,0.3673472471654035,117.2,1.0,-0.006079999999999999,0.017777333883347075,-0.055,-0.0024000000000000002,0.012622202660391726,0.036,0.025406890897622037,0.010935716479331859,0.0,0.12300000000000001,1,0,D1
115.50200000000001,1.3229497344948546,117.2,4.299999999999997,-0.00954,0.02000020999889751,-0.05,0.011080000000000001,0.02013438849332157,0.064,0.032573471708819135,0.013782922071707403,0.0,0.20292,1,0,D1
113.764,0.7847955147680172,116.2,3.299999999999997,-0.00808,0.025691897555455107,-0.062,-0.00154,0.033824967110109655,0.064,0.04242030704636968,0.013613873441887114,0.0,0.24394000000000002,1,0,D1
113.052,0.3971095566717074,113.3,1.5,-0.007219999999999999,0.02679797753562757,-0.062,-0.00982,0.026444424743223286,0.062,0.03885292419600163,0.014396884434479264,0.0,0.25856,1,0,D1
111.71400000000001,1.3699649630556279,113.3,3.700000000000003,-0.011740000000000002,0.02643695141274803,-0.057,0.0149,0.014263590010933433,0.047,0.03520016932919001,0.013443514391570044,0.0,0.15438000000000002,1,0,D1
109.8,0.9777525249264248,111.8,3.200000000000003,-0.006920000000000001,0.025450218073721883,-0.054,0.011340000000000001,0.017511835997404725,0.049,0.03204200293655945,0.016127307519034784,0.0,0.18776,1,0,D1
108.59200000000001,0.8454206053793581,109.6,2.5999999999999943,-0.005279999999999999,0.01872969834247204,-0.041,-0.00214,0.014808119394440336,0.049,0.02703523270865626,0.01416249244973506,0.0,0.25373999999999997,1,0,D1
108.35199999999999,0.8626099929864012,109.7,2.700000000000003,-0.0103,0.016597891432347665,-0.051,-0.008280000000000001,0.024145426067891204,0.087,0.035330671518387397,0.016798918121706818,0.0,0.40754000000000007,1,0,D1
110.06,1.7217433025860729,112.2,5.200000000000003,-0.0127,0.018550741225083163,-0.051,0.011760000000000001,0.03928590586966272,0.108,0.043976472597597106,0.024689063527659184,0.0,0.44634,1,0,D1
112.04399999999998,0.9332009429913783,113.0,3.299999999999997,-0.011479999999999999,0.026487914225170692,-0.097,0.014480000000000002,0.03954098633064178,0.108,0.04456850293837367,0.028050107768637502,0.0,0.25018,1,0,D1
113.16,0.7914543574963773,114.5,2.4000000000000057,-0.01198,0.027276722677037284,-0.097,-0.01042,0.03327647216878616,0.06,0.041639963791699576,0.02119276799820986,0.0,0.34066,1,0,D1
114.12400000000001,0.5998533154030223,114.8,1.7999999999999972,-0.01102,0.02015290549771918,-0.051,-0.0155,0.023853092042752027,0.052,0.033304323158834935,0.017296301886007052,0.0,0.29894000000000004,1,0,D1
114.472,0.188722017793365,114.8,0.5999999999999943,-0.01242,0.019803120966150764,-0.048,-0.0016599999999999996,0.02034365748826892,0.052,0.028188941769142502,0.015490111747043431,0.0,0.1619,1,0,D1
113.88799999999999,0.8115762441077263,114.5,1.9000000000000057,-0.0113,0.022667377439836305,-0.051,0.007019999999999999,0.013770243280349117,0.041,0.027078580345833533,0.013745198669143989,0.0,0.15938,1,0,D1
113.28599999999999,0.5868594380258385,114.4,1.8000000000000114,-0.00768,0.02446175790903017,-0.051,0.0037600000000000008,0.014091926766769689,0.035,0.027027558073382165,0.013708067135448173,0.0,0.09552,1,0,D1
113.516,0.3910805543618851,114.3,1.3999999999999915,-0.00634,0.020210502220380372,-0.045,0.00046,0.015210798795592556,0.035,0.027892111438488184,0.010910092552446874,0.0,0.05579999999999999,1,0,D1
114.684,1.0876322908042058,116.9,3.6000000000000085,-0.007120000000000002,0.01739153817234117,-0.048,-0.00052,0.013453980823533235,0.029,0.027099843726303443,0.008631249620416035,0.0,0.044199999999999996,1,0,D1
116.49,1.0811567878897137,117.8,3.5,-0.002780000000000001,0.021154942684866816,-0.048,-0.0029800000000000004,0.016373747280326516,0.048,0.027169156306912474,0.010874600938450938,0.0,0.06958,1,0,D1
117.74600000000002,0.44686015709615323,118.3,1.3999999999999915,0.0009799999999999995,0.024336384283619457,-0.061,-0.00522,0.014691888918719745,0.048,0.027213743797484743,0.013127533984905937,0.0,0.07602,1,0,D1
118.18400000000001,0.32579748310875595,118.7,1.0,-0.003839999999999999,0.02871888577225795,-0.061,-0.006999999999999999,0.013472935834479434,0.042,0.030483489309882237,0.014487128062328141,0.0,0.08736,1,0,D1
118.33800000000001,0.34344723029892044,118.7,1.0,-0.007539999999999999,0.022911315981409712,-0.046,-0.009600000000000001,0.013239335330748291,0.042,0.026983935314248808,0.013259986235152591,0.0,0.10174,1,0,D1
118.16,0.42237424163885784,118.6,1.0,-0.01154,0.018346890744755637,-0.047,0.00376,0.017378791672610614,0.042,0.026850191697404588,0.01233317500940555,0.0,0.0806,1,0,D1
117.95400000000001,0.32075535848992287,118.6,1.0,-0.014100000000000001,0.01827265716856747,-0.047,0.009300000000000001,0.013522203962372406,0.042,0.027797569061724307,0.01235132196401128,0.0,0.07416,1,0,D1
117.95199999999998,0.1299846144741724,118.1,0.3999999999999915,-0.008620000000000001,0.014008411758654155,-0.043,0.0009200000000000001,0.021756690924862633,0.047,0.02693543393449758,0.010887717793932572,0.0,0.1708,1,0,D1
118.238,0.54475315510789,119.2,1.4000000000000057,-0.00762,0.018152564557108727,-0.062,0.0033,0.02215784285529618,0.047,0.028417785260362035,0.011502585835191577,0.0,0.39804,1,0,D1
119.19599999999998,0.8543910111886689,121.3,3.3999999999999915,-0.012180000000000002,0.020455502927085416,-0.064,0.011619999999999998,0.010250639004471868,0.034,0.0262426444135247,0.012681625060902126,0.0,0.3899799999999999,1,0,D1
120.802,1.08986054153731,122.2,3.299999999999997,-0.00868,0.016111412104468065,-0.064,0.006040000000000001,0.013119390229732478,0.034,0.021950735864024316,0.011076334909519332,0.0,0.19621999999999995,1,0,D1
122.12000000000002,0.48538644398046293,122.6,1.2999999999999972,-0.008520000000000002,0.012614658140433296,-0.037,-0.0076,0.011067068265805538,0.039,0.01968700170999957,0.008151194002750392,0.0,0.10846,1,0,D1
122.64,0.412795348811006,123.3,1.5,-0.00962,0.02354645620895,-0.06,-0.009420000000000001,0.012346805254801746,0.039,0.02690093111686103,0.014953926074643341,0.0,0.07382000000000001,1,0,D1
123.088,0.47355675478236114,123.7,1.4000000000000057,-0.00918,0.025678543572406905,-0.06,-0.006160000000000001,0.010568557138985434,0.025,0.028326794871154054,0.015376367982314957,0.0,0.07302,1,0,D1
122.42400000000002,1.1642267820317485,123.7,3.200000000000003,-0.00992,0.016285993982560597,-0.048,0.00232,0.012540239232167781,0.042,0.023229112293461224,0.01232186439049581,0.0,0.051980000000000005,1,0,D1
120.816,1.035057486326245,122.7,4.200000000000003,-0.01012,0.015634116540438094,-0.05,-0.0010599999999999997,0.01694155836987849,0.042,0.024175519328191196,0.012288379275244316,0.0,0.06101999999999999,1,0,D1
118.88,1.4204224723651748,120.7,3.799999999999997,-0.00682,0.01825780928808273,-0.05,-0.00536,0.01623793090267353,0.041,0.025802238600154258,0.01070067676461212,0.0,0.06984,1,0,D1
117.43400000000001,0.6038575991076023,118.5,1.7999999999999972,-0.0051400000000000005,0.02213866301292831,-0.085,-0.00528,0.020392194585183814,0.068,0.028486058879648772,0.015905484887458896,0.0,0.1312,1,0,D1
117.51799999999999,0.5512494897956816,118.5,1.7999999999999972,-0.005120000000000001,0.022178043195917894,-0.085,0.01056,0.034396023025925544,0.074,0.04002312108892602,0.019059112736461922,0.0,0.48076,1,0,D1
118.12,0.7345747068882778,119.3,2.0,-0.004299999999999999,0.018661457606521523,-0.042,0.01656,0.02795150085415808,0.074,0.0357537949059828,0.017547254765943255,0.0,0.41129999999999994,1,0,D1
119.08400000000002,1.1218484746167792,121.1,3.799999999999997,-0.00392,0.018619172913961566,-0.042,-0.0032400000000000007,0.011364083773010476,0.037,0.021352275099381483,0.010661160728566727,0.0,0.08778000000000001,1,0,D1
120.58799999999998,1.2169864419951448,121.9,3.4000000000000057,-0.0044,0.01800777609811939,-0.041,0.00026,0.01737907937722824,0.053,0.02368781467471987,0.012531856843106934,0.0,0.07304,1,0,D1
121.76,0.5499090833947023,122.5,1.7000000000000028,-0.01302,0.01885575774133726,-0.048,0.00486,0.024646306011246392,0.054,0.032436748302087974,0.013384967672243082,0.0,0.27616,1,0,D1
122.24,0.46303347611160783,123.0,1.2999999999999972,-0.01226,0.021193215895658684,-0.061,-0.011739999999999999,0.028664828623244896,0.058,0.03787906205909268,0.014665492065505537,0.0,0.3249,1,0,D1
121.95999999999997,0.588557558782484,123.0,1.5999999999999943,-0.01006,0.01942,-0.061,-0.010360000000000001,0.023597254077540465,0.058,0.030569800892435092,0.016986090586031708,0.0,0.19632000000000002,1,0,D1
121.10000000000004,0.44721359549996303,121.9,1.3000000000000114,-0.01024,0.019526965970165462,-0.063,0.013680000000000001,0.013790489476447164,0.035,0.02757778864086067,0.012782236646221837,0.0,0.22626,1,0,D1
120.76,0.18547236990991361,121.1,0.5,-0.009500000000000001,0.021768095920406086,-0.063,0.01746,0.011173558072521036,0.035,0.031183421595908558,0.009867837532703086,0.0,0.16962,1,0,D1
120.52999999999999,0.42906875905849595,121.1,1.6999999999999886,-0.010859999999999998,0.01887645093761007,-0.044,0.006000000000000001,0.017109061926359373,0.037,0.027427285336981497,0.010334602994009956,0.0,0.08734,1,0,D1
120.04,0.40298883359219706,120.5,1.0999999999999943,-0.0102,0.02048804529475665,-0.054,-0.00454,0.016897585626355027,0.037,0.027159109066153136,0.01183227766462563,0.0,0.04584,1,0,D1
120.14599999999999,0.4875284607076794,120.8,1.3999999999999915,-0.008719999999999999,0.024635778859212063,-0.054,-0.007039999999999999,0.013876541355827828,0.034,0.029412296309071634,0.012145650490087857,0.0,0.04223999999999999,1,0,D1
120.32399999999998,0.4012779585275024,120.8,1.0999999999999943,-0.01608,0.024986268228769176,-0.072,-0.00784,0.012288791641166351,0.034,0.031433041567802925,0.014009421750977939,0.0,0.03,1,0,D1
120.208,0.3327701909726891,120.7,1.0,-0.01632,0.020757109625378967,-0.072,-0.0051,0.012901550294441363,0.029,0.027048206343061935,0.014284765788179513,0.0,0.05798000000000001,1,0,D1
119.98600000000002,0.4252105360877107,120.7,1.2999999999999972,-0.01016,0.01763900223935583,-0.039,-0.0026,0.011249888888340187,0.029,0.022088061796382653,0.009571704450053866,0.0,0.10393999999999998,1,0,D1
119.94,0.3261901286059993,120.3,0.8999999999999915,-0.01306,0.017903530378112577,-0.045,-0.00198,0.01299152031134155,0.026,0.0235869690978395,0.011565244864574402,0.0,0.10217999999999999,1,0,D1
120.40800000000002,0.42277180606090453,121.6,1.7999999999999972,-0.01248,0.024205982731548,-0.085,-0.0035199999999999997,0.014556428133302483,0.026,0.027840879202964807,0.016970133918326094,0.0,0.1566,1,0,D1
121.82,1.3746272221951643,124.1,3.8999999999999915,-0.013680000000000001,0.032950532620884904,-0.103,-0.0021000000000000003,0.023370280272174745,0.056,0.039573216572185876,0.021298838703809022,0.0,0.4530800000000001,1,0,D1
122.64400000000002,0.8280483077695397,124.1,2.5,-0.018940000000000002,0.0363496409885985,-0.103,0.00892,0.02975556418554352,0.082,0.04633927447560647,0.02579828756089067,0.0,0.40952,1,0,D1
122.09599999999999,0.5023783434822808,122.7,1.5,-0.022480000000000003,0.03195887357213956,-0.089,0.00374,0.028195609587309867,0.082,0.04226332104044957,0.025191897400392335,0.0,0.09262000000000002,1,0,D1
121.448,0.5859146695552185,122.4,1.5,-0.02144,0.023250083870816465,-0.062,0.00504,0.02203992740459914,0.055,0.035820632528476455,0.01674461959137485,0.0,0.09164000000000001,1,0,D1
121.04600000000002,0.21652713455823336,122.4,1.5,-0.008560000000000002,0.02577608193655506,-0.062,0.0015000000000000002,0.021740515173288788,0.039,0.03265898682126754,0.015086105521580882,0.0,0.10846,1,0,D1
121.652,0.85281651015913,123.6,2.6999999999999886,0.0038399999999999997,0.02758503942357161,-0.053,-0.026099999999999998,0.02067389658482406,0.075,0.04166419726008769,0.01696922704994252,0.0,0.05322000000000001,1,0,D1
122.77799999999999,0.8107502698118552,123.6,2.1999999999999886,0.0018000000000000008,0.02331179958733345,-0.049,-0.0213,0.0211463944917331,0.075,0.03498554232052202,0.018790737839131356,0.0,0.048799999999999996,1,0,D1
123.35000000000002,0.1700000000000003,123.6,0.5,-0.0002799999999999999,0.019435061101010204,-0.039,-0.0027800000000000004,0.00989603961188515,0.029,0.02271629455938717,0.009450394779645809,0.0,0.07654,1,0,D1
122.832,0.7806253903121484,123.6,2.1999999999999886,0.0033600000000000006,0.020559922178841047,-0.039,-0.0005200000000000001,0.010408150652253263,0.029,0.025765133699491644,0.009651833268727752,0.0,0.09269999999999999,1,0,D1
122.30000000000001,0.644980619863882,123.6,2.1999999999999886,-0.00368,0.025859187922284026,-0.086,-0.00622,0.012139670506236981,0.034,0.030322839570396123,0.014479827360435588,0.0,0.08224000000000001,1,0,D1
121.314,1.155164057612595,122.8,3.5999999999999943,-0.0178,0.02332809465001375,-0.086,-0.00756,0.011740800654129172,0.034,0.03204700148040402,0.015603515505006639,0.0,0.14342,1,0,D1
119.264,1.2133853468704805,121.6,4.199999999999989,-0.0175,0.020260552805883653,-0.072,-0.00458,0.01306,0.032,0.0301230465766173,0.012992384882805193,0.0,0.29232,1,0,D1
116.73599999999999,1.6852014716347712,119.2,4.799999999999997,-0.01138,0.031262687024630496,-0.107,-0.0035599999999999994,0.013847974581143625,0.028,0.03532544809782655,0.016892386352666777,0.0,0.31361999999999995,1,0,D1
114.83600000000003,0.7688328817109737,117.4,3.4000000000000057,-0.011660000000000002,0.036478821252885894,-0.107,-0.00266,0.012122062530774209,0.027,0.04155623729473965,0.019036783917019406,0.0,0.20656000000000002,1,0,D1
115.344,1.1045650727775171,117.7,3.700000000000003,-0.011699999999999999,0.028653970056520962,-0.086,-0.0021200000000000004,0.01072499883449877,0.025,0.03431859372641452,0.017140423700752028,0.0,0.12296,1,0,D1
117.60000000000002,1.5472556349873146,119.6,5.0,-0.00998,0.02161711359085667,-0.053,-0.00039999999999999996,0.012574577527694518,0.03,0.026117534861545336,0.01163762745390847,0.0,0.11779999999999999,1,0,D1
120.27199999999999,1.4668387777802994,122.0,4.299999999999997,-0.016280000000000003,0.0274014890106359,-0.095,0.006140000000000001,0.014312246504305326,0.031,0.03140780798623496,0.018798659460179487,0.0,0.1179,1,0,D1
122.116,0.652184023110042,122.8,1.7999999999999972,-0.020720000000000006,0.027019282003783892,-0.095,0.013999999999999999,0.012284950142348972,0.043,0.03494861427711285,0.01982257198522897,0.0,0.18665999999999994,1,0,D1
122.676,0.21406541056415404,122.8,0.7999999999999972,-0.016260000000000004,0.023348498881084413,-0.068,-0.00074,0.022361404249286315,0.043,0.03462063790424858,0.015362663541941745,0.0,0.19232000000000002,1,0,D1
122.81000000000002,0.5223983154643582,123.6,2.299999999999997,-0.01192,0.019245612487005966,-0.052,-0.00408,0.02195526360579622,0.039,0.03082413195847947,0.012771565644283583,0.0,0.34328000000000003,1,0,D1
122.33200000000001,0.7908071825672789,123.6,2.299999999999997,-0.0097,0.016870388258721256,-0.041,0.00268,0.016004299422342737,0.039,0.023997834075988225,0.010584137171320977,0.0,0.29068,1,0,D1
121.77599999999998,0.3114867573429096,122.0,1.0999999999999943,-0.012440000000000001,0.016208837095856073,-0.043,-0.0008200000000000002,0.011794388496229892,0.03,0.024066001663341573,0.010527467118924695,0.0,0.09786000000000002,1,0,D1
120.47200000000001,1.597377851355154,122.0,4.299999999999997,-0.016460000000000002,0.01697434534820121,-0.063,-0.006760000000000001,0.01708046837765288,0.042,0.03181644968980244,0.014771375329882803,0.0,0.14607999999999996,1,0,D1
117.45200000000001,2.018835307795065,120.9,6.0,-0.011359999999999999,0.020720772186383404,-0.063,-0.0129,0.014090067423543438,0.042,0.0332047901145044,0.014280123019488018,0.0,0.06646,1,0,D1
115.55600000000003,0.699188100585244,117.7,2.799999999999997,-0.006659999999999999,0.024179834573462244,-0.076,-0.01114,0.009984007211535856,0.035,0.030594552831853396,0.01300512733574461,0.0,0.04501999999999999,1,0,D1
